ExperimentName,Subject,Session,Clock.Information,DataFile.Basename,Display.RefreshRate,ExperimentVersion,Group,Initials,RandomSeed,RuntimeCapabilities,RuntimeVersion,RuntimeVersionExpected,SessionDate,SessionStartDateTimeUtc,SessionTime,StudioVersion,Block,AnsAbility.RESP,AnsAbility.RT,AnsAbility.RTTime,AnsHonest.RESP,AnsHonest.RT,AnsHonest.RTTime,Attribute1,BlockList,BlockList.Cycle,BlockList.Sample,NumberRecall1.ACC,NumberRecall1.CRESP,NumberRecall1.DurationError,NumberRecall1.OnsetDelay,NumberRecall1.OnsetTime,NumberRecall1.RESP,NumberRecall1.RT,NumberRecall1.RTTime,PANASnext.RT,PANASnext.RTTime,Procedure[Block],RMEStim1.ACC,RMEStim1.CRESP,RMEStim1.DurationError,RMEStim1.OnsetDelay,RMEStim1.OnsetTime,RMEStim1.RESP,RMEStim1.RT,RMEStim1.RTTime,Running[Block],Slide2.ACC,Slide2.CRESP,Slide2.DurationError,Slide2.OnsetDelay,Slide2.OnsetTime,Slide2.RESP,Slide2.RT,Slide2.RTTime,STAInext.RT,STAInext.RTTime,Trial,colordiscrim,colordiscrim.Cycle,colordiscrim.Sample,colortask.ACC,colortask.CRESP,colortask.DurationError,colortask.OnsetDelay,colortask.OnsetTime,colortask.RESP,colortask.RT,colortask.RTTime,CorrectAnswer,correctanswernum,filename,NumberRecall.ACC,NumberRecall.CRESP,NumberRecall.DurationError,NumberRecall.OnsetDelay,NumberRecall.OnsetTime,NumberRecall.RESP,NumberRecall.RT,NumberRecall.RTTime,Numbers,NumRecall,PANASQuestions,PANASQuestions.Cycle,PANASQuestions.Sample,PANASStim.RESP,PANASStim.RT,PANASStim.RTTime,Procedure[Trial],RMEStim.ACC,RMEStim.CRESP,RMEStim.DurationError,RMEStim.OnsetDelay,RMEStim.OnsetTime,RMEStim.RESP,RMEStim.RT,RMEStim.RTTime,RMETrialList,RMETrialList.Cycle,RMETrialList.Sample,Running[Trial],STAIQuestions,STAIQuestions.Cycle,STAIQuestions.Sample,STAIStim.RESP,STAIStim.RT,STAIStim.RTTime
RMEBPD Clinical Cog Load (2.13,2898,1,"<?xml version=""1.0""?>\n<Clock xmlns:dt=""urn:schemas-microsoft-com:datatypes""><Description dt:dt=""string"">E-Prime Primary Realtime Clock</Description><StartTime><Timestamp dt:dt=""int"">0</Timestamp><DateUtc dt:dt=""string"">2017-12-05T19:18:40Z</DateUtc></StartTime><FrequencyChanges><FrequencyChange><Frequency dt:dt=""r8"">2922978</Frequency><Timestamp dt:dt=""r8"">746266531998</Timestamp><Current dt:dt=""r8"">0</Current><DateUtc dt:dt=""string"">2017-12-05T19:18:40Z</DateUtc></FrequencyChange></FrequencyChanges></Clock>\n",RMEBPD Clinical Cog Load (2.13-2898-1,60.007,1.0.0.401,1,IC,-1057193573,Professional,2.0.10.353,2.0.10.353,12/5/2017,12/5/2017 19:18,14:18:40,2.0.10.248,1,,,,,,,?,1,1,1,,,,,,,,,,,STAI,,,,,,,,,BlockList,,,,,,,,,2018,879184,1,,,,,,,,,,,,,,STAI01.bmp,,,,,,,,,,,,,,,,,STAIProc,,,,,,,,,,,,STAIQuestions,1,1,1,1,36774,916189
RMEBPD Clinical Cog Load (2.13,2898,1,"<?xml version=""1.0""?>\n<Clock xmlns:dt=""urn:schemas-microsoft-com:datatypes""><Description dt:dt=""string"">E-Prime Primary Realtime Clock</Description><StartTime><Timestamp dt:dt=""int"">0</Timestamp><DateUtc dt:dt=""string"">2017-12-05T19:18:40Z</DateUtc></StartTime><FrequencyChanges><FrequencyChange><Frequency dt:dt=""r8"">2922978</Frequency><Timestamp dt:dt=""r8"">746266531998</Timestamp><Current dt:dt=""r8"">0</Current><DateUtc dt:dt=""string"">2017-12-05T19:18:40Z</DateUtc></FrequencyChange></FrequencyChanges></Clock>\n",RMEBPD Clinical Cog Load (2.13-2898-1,60.007,1.0.0.401,1,IC,-1057193573,Professional,2.0.10.353,2.0.10.353,12/5/2017,12/5/2017 19:18,14:18:40,2.0.10.248,1,,,,,,,?,1,1,1,,,,,,,,,,,STAI,,,,,,,,,BlockList,,,,,,,,,2018,879184,2,,,,,,,,,,,,,,STAI02.bmp,,,,,,,,,,,,,,,,,STAIProc,,,,,,,,,,,,STAIQuestions,2,1,2,1,6651,922979
RMEBPD Clinical Cog Load (2.13,2898,1,"<?xml version=""1.0""?>\n<Clock xmlns:dt=""urn:schemas-microsoft-com:datatypes""><Description dt:dt=""string"">E-Prime Primary Realtime Clock</Description><StartTime><Timestamp dt:dt=""int"">0</Timestamp><DateUtc dt:dt=""string"">2017-12-05T19:18:40Z</DateUtc></StartTime><FrequencyChanges><FrequencyChange><Frequency dt:dt=""r8"">2922978</Frequency><Timestamp dt:dt=""r8"">746266531998</Timestamp><Current dt:dt=""r8"">0</Current><DateUtc dt:dt=""string"">2017-12-05T19:18:40Z</DateUtc></FrequencyChange></FrequencyChanges></Clock>\n",RMEBPD Clinical Cog Load (2.13-2898-1,60.007,1.0.0.401,1,IC,-1057193573,Professional,2.0.10.353,2.0.10.353,12/5/2017,12/5/2017 19:18,14:18:40,2.0.10.248,1,,,,,,,?,1,1,1,,,,,,,,,,,STAI,,,,,,,,,BlockList,,,,,,,,,2018,879184,3,,,,,,,,,,,,,,STAI03.bmp,,,,,,,,,,,,,,,,,STAIProc,,,,,,,,,,,,STAIQuestions,3,1,3,3,4833,927944
RMEBPD Clinical Cog Load (2.13,2898,1,"<?xml version=""1.0""?>\n<Clock xmlns:dt=""urn:schemas-microsoft-com:datatypes""><Description dt:dt=""string"">E-Prime Primary Realtime Clock</Description><StartTime><Timestamp dt:dt=""int"">0</Timestamp><DateUtc dt:dt=""string"">2017-12-05T19:18:40Z</DateUtc></StartTime><FrequencyChanges><FrequencyChange><Frequency dt:dt=""r8"">2922978</Frequency><Timestamp dt:dt=""r8"">746266531998</Timestamp><Current dt:dt=""r8"">0</Current><DateUtc dt:dt=""string"">2017-12-05T19:18:40Z</DateUtc></FrequencyChange></FrequencyChanges></Clock>\n",RMEBPD Clinical Cog Load (2.13-2898-1,60.007,1.0.0.401,1,IC,-1057193573,Professional,2.0.10.353,2.0.10.353,12/5/2017,12/5/2017 19:18,14:18:40,2.0.10.248,1,,,,,,,?,1,1,1,,,,,,,,,,,STAI,,,,,,,,,BlockList,,,,,,,,,2018,879184,4,,,,,,,,,,,,,,STAI04.bmp,,,,,,,,,,,,,,,,,STAIProc,,,,,,,,,,,,STAIQuestions,4,1,4,2,3534,931611
RMEBPD Clinical Cog Load (2.13,2898,1,"<?xml version=""1.0""?>\n<Clock xmlns:dt=""urn:schemas-microsoft-com:datatypes""><Description dt:dt=""string"">E-Prime Primary Realtime Clock</Description><StartTime><Timestamp dt:dt=""int"">0</Timestamp><DateUtc dt:dt=""string"">2017-12-05T19:18:40Z</DateUtc></StartTime><FrequencyChanges><FrequencyChange><Frequency dt:dt=""r8"">2922978</Frequency><Timestamp dt:dt=""r8"">746266531998</Timestamp><Current dt:dt=""r8"">0</Current><DateUtc dt:dt=""string"">2017-12-05T19:18:40Z</DateUtc></FrequencyChange></FrequencyChanges></Clock>\n",RMEBPD Clinical Cog Load (2.13-2898-1,60.007,1.0.0.401,1,IC,-1057193573,Professional,2.0.10.353,2.0.10.353,12/5/2017,12/5/2017 19:18,14:18:40,2.0.10.248,1,,,,,,,?,1,1,1,,,,,,,,,,,STAI,,,,,,,,,BlockList,,,,,,,,,2018,879184,5,,,,,,,,,,,,,,STAI05.bmp,,,,,,,,,,,,,,,,,STAIProc,,,,,,,,,,,,STAIQuestions,5,1,5,1,3293,935053
RMEBPD Clinical Cog Load (2.13,2898,1,"<?xml version=""1.0""?>\n<Clock xmlns:dt=""urn:schemas-microsoft-com:datatypes""><Description dt:dt=""string"">E-Prime Primary Realtime Clock</Description><StartTime><Timestamp dt:dt=""int"">0</Timestamp><DateUtc dt:dt=""string"">2017-12-05T19:18:40Z</DateUtc></StartTime><FrequencyChanges><FrequencyChange><Frequency dt:dt=""r8"">2922978</Frequency><Timestamp dt:dt=""r8"">746266531998</Timestamp><Current dt:dt=""r8"">0</Current><DateUtc dt:dt=""string"">2017-12-05T19:18:40Z</DateUtc></FrequencyChange></FrequencyChanges></Clock>\n",RMEBPD Clinical Cog Load (2.13-2898-1,60.007,1.0.0.401,1,IC,-1057193573,Professional,2.0.10.353,2.0.10.353,12/5/2017,12/5/2017 19:18,14:18:40,2.0.10.248,1,,,,,,,?,1,1,1,,,,,,,,,,,STAI,,,,,,,,,BlockList,,,,,,,,,2018,879184,6,,,,,,,,,,,,,,STAI06.bmp,,,,,,,,,,,,,,,,,STAIProc,,,,,,,,,,,,STAIQuestions,6,1,6,2,1621,936814
RMEBPD Clinical Cog Load (2.13,2898,1,"<?xml version=""1.0""?>\n<Clock xmlns:dt=""urn:schemas-microsoft-com:datatypes""><Description dt:dt=""string"">E-Prime Primary Realtime Clock</Description><StartTime><Timestamp dt:dt=""int"">0</Timestamp><DateUtc dt:dt=""string"">2017-12-05T19:18:40Z</DateUtc></StartTime><FrequencyChanges><FrequencyChange><Frequency dt:dt=""r8"">2922978</Frequency><Timestamp dt:dt=""r8"">746266531998</Timestamp><Current dt:dt=""r8"">0</Current><DateUtc dt:dt=""string"">2017-12-05T19:18:40Z</DateUtc></FrequencyChange></FrequencyChanges></Clock>\n",RMEBPD Clinical Cog Load (2.13-2898-1,60.007,1.0.0.401,1,IC,-1057193573,Professional,2.0.10.353,2.0.10.353,12/5/2017,12/5/2017 19:18,14:18:40,2.0.10.248,1,,,,,,,?,1,1,1,,,,,,,,,,,STAI,,,,,,,,,BlockList,,,,,,,,,2018,879184,7,,,,,,,,,,,,,,STAI07.bmp,,,,,,,,,,,,,,,,,STAIProc,,,,,,,,,,,,STAIQuestions,7,1,7,3,5488,942447
RMEBPD Clinical Cog Load (2.13,2898,1,"<?xml version=""1.0""?>\n<Clock xmlns:dt=""urn:schemas-microsoft-com:datatypes""><Description dt:dt=""string"">E-Prime Primary Realtime Clock</Description><StartTime><Timestamp dt:dt=""int"">0</Timestamp><DateUtc dt:dt=""string"">2017-12-05T19:18:40Z</DateUtc></StartTime><FrequencyChanges><FrequencyChange><Frequency dt:dt=""r8"">2922978</Frequency><Timestamp dt:dt=""r8"">746266531998</Timestamp><Current dt:dt=""r8"">0</Current><DateUtc dt:dt=""string"">2017-12-05T19:18:40Z</DateUtc></FrequencyChange></FrequencyChanges></Clock>\n",RMEBPD Clinical Cog Load (2.13-2898-1,60.007,1.0.0.401,1,IC,-1057193573,Professional,2.0.10.353,2.0.10.353,12/5/2017,12/5/2017 19:18,14:18:40,2.0.10.248,1,,,,,,,?,1,1,1,,,,,,,,,,,STAI,,,,,,,,,BlockList,,,,,,,,,2018,879184,8,,,,,,,,,,,,,,STAI08.bmp,,,,,,,,,,,,,,,,,STAIProc,,,,,,,,,,,,STAIQuestions,8,1,8,1,1562,944154
RMEBPD Clinical Cog Load (2.13,2898,1,"<?xml version=""1.0""?>\n<Clock xmlns:dt=""urn:schemas-microsoft-com:datatypes""><Description dt:dt=""string"">E-Prime Primary Realtime Clock</Description><StartTime><Timestamp dt:dt=""int"">0</Timestamp><DateUtc dt:dt=""string"">2017-12-05T19:18:40Z</DateUtc></StartTime><FrequencyChanges><FrequencyChange><Frequency dt:dt=""r8"">2922978</Frequency><Timestamp dt:dt=""r8"">746266531998</Timestamp><Current dt:dt=""r8"">0</Current><DateUtc dt:dt=""string"">2017-12-05T19:18:40Z</DateUtc></FrequencyChange></FrequencyChanges></Clock>\n",RMEBPD Clinical Cog Load (2.13-2898-1,60.007,1.0.0.401,1,IC,-1057193573,Professional,2.0.10.353,2.0.10.353,12/5/2017,12/5/2017 19:18,14:18:40,2.0.10.248,1,,,,,,,?,1,1,1,,,,,,,,,,,STAI,,,,,,,,,BlockList,,,,,,,,,2018,879184,9,,,,,,,,,,,,,,STAI09.bmp,,,,,,,,,,,,,,,,,STAIProc,,,,,,,,,,,,STAIQuestions,9,1,9,4,2322,946614
RMEBPD Clinical Cog Load (2.13,2898,1,"<?xml version=""1.0""?>\n<Clock xmlns:dt=""urn:schemas-microsoft-com:datatypes""><Description dt:dt=""string"">E-Prime Primary Realtime Clock</Description><StartTime><Timestamp dt:dt=""int"">0</Timestamp><DateUtc dt:dt=""string"">2017-12-05T19:18:40Z</DateUtc></StartTime><FrequencyChanges><FrequencyChange><Frequency dt:dt=""r8"">2922978</Frequency><Timestamp dt:dt=""r8"">746266531998</Timestamp><Current dt:dt=""r8"">0</Current><DateUtc dt:dt=""string"">2017-12-05T19:18:40Z</DateUtc></FrequencyChange></FrequencyChanges></Clock>\n",RMEBPD Clinical Cog Load (2.13-2898-1,60.007,1.0.0.401,1,IC,-1057193573,Professional,2.0.10.353,2.0.10.353,12/5/2017,12/5/2017 19:18,14:18:40,2.0.10.248,1,,,,,,,?,1,1,1,,,,,,,,,,,STAI,,,,,,,,,BlockList,,,,,,,,,2018,879184,10,,,,,,,,,,,,,,STAI10.bmp,,,,,,,,,,,,,,,,,STAIProc,,,,,,,,,,,,STAIQuestions,10,1,10,2,1942,948700
RMEBPD Clinical Cog Load (2.13,2898,1,"<?xml version=""1.0""?>\n<Clock xmlns:dt=""urn:schemas-microsoft-com:datatypes""><Description dt:dt=""string"">E-Prime Primary Realtime Clock</Description><StartTime><Timestamp dt:dt=""int"">0</Timestamp><DateUtc dt:dt=""string"">2017-12-05T19:18:40Z</DateUtc></StartTime><FrequencyChanges><FrequencyChange><Frequency dt:dt=""r8"">2922978</Frequency><Timestamp dt:dt=""r8"">746266531998</Timestamp><Current dt:dt=""r8"">0</Current><DateUtc dt:dt=""string"">2017-12-05T19:18:40Z</DateUtc></FrequencyChange></FrequencyChanges></Clock>\n",RMEBPD Clinical Cog Load (2.13-2898-1,60.007,1.0.0.401,1,IC,-1057193573,Professional,2.0.10.353,2.0.10.353,12/5/2017,12/5/2017 19:18,14:18:40,2.0.10.248,1,,,,,,,?,1,1,1,,,,,,,,,,,STAI,,,,,,,,,BlockList,,,,,,,,,2018,879184,11,,,,,,,,,,,,,,STAI11.bmp,,,,,,,,,,,,,,,,,STAIProc,,,,,,,,,,,,STAIQuestions,11,1,11,1,2022,950863
RMEBPD Clinical Cog Load (2.13,2898,1,"<?xml version=""1.0""?>\n<Clock xmlns:dt=""urn:schemas-microsoft-com:datatypes""><Description dt:dt=""string"">E-Prime Primary Realtime Clock</Description><StartTime><Timestamp dt:dt=""int"">0</Timestamp><DateUtc dt:dt=""string"">2017-12-05T19:18:40Z</DateUtc></StartTime><FrequencyChanges><FrequencyChange><Frequency dt:dt=""r8"">2922978</Frequency><Timestamp dt:dt=""r8"">746266531998</Timestamp><Current dt:dt=""r8"">0</Current><DateUtc dt:dt=""string"">2017-12-05T19:18:40Z</DateUtc></FrequencyChange></FrequencyChanges></Clock>\n",RMEBPD Clinical Cog Load (2.13-2898-1,60.007,1.0.0.401,1,IC,-1057193573,Professional,2.0.10.353,2.0.10.353,12/5/2017,12/5/2017 19:18,14:18:40,2.0.10.248,1,,,,,,,?,1,1,1,,,,,,,,,,,STAI,,,,,,,,,BlockList,,,,,,,,,2018,879184,12,,,,,,,,,,,,,,STAI12.bmp,,,,,,,,,,,,,,,,,STAIProc,,,,,,,,,,,,STAIQuestions,12,1,12,4,1869,952893
RMEBPD Clinical Cog Load (2.13,2898,1,"<?xml version=""1.0""?>\n<Clock xmlns:dt=""urn:schemas-microsoft-com:datatypes""><Description dt:dt=""string"">E-Prime Primary Realtime Clock</Description><StartTime><Timestamp dt:dt=""int"">0</Timestamp><DateUtc dt:dt=""string"">2017-12-05T19:18:40Z</DateUtc></StartTime><FrequencyChanges><FrequencyChange><Frequency dt:dt=""r8"">2922978</Frequency><Timestamp dt:dt=""r8"">746266531998</Timestamp><Current dt:dt=""r8"">0</Current><DateUtc dt:dt=""string"">2017-12-05T19:18:40Z</DateUtc></FrequencyChange></FrequencyChanges></Clock>\n",RMEBPD Clinical Cog Load (2.13-2898-1,60.007,1.0.0.401,1,IC,-1057193573,Professional,2.0.10.353,2.0.10.353,12/5/2017,12/5/2017 19:18,14:18:40,2.0.10.248,1,,,,,,,?,1,1,1,,,,,,,,,,,STAI,,,,,,,,,BlockList,,,,,,,,,2018,879184,13,,,,,,,,,,,,,,STAI13.bmp,,,,,,,,,,,,,,,,,STAIProc,,,,,,,,,,,,STAIQuestions,13,1,13,2,3220,956344
RMEBPD Clinical Cog Load (2.13,2898,1,"<?xml version=""1.0""?>\n<Clock xmlns:dt=""urn:schemas-microsoft-com:datatypes""><Description dt:dt=""string"">E-Prime Primary Realtime Clock</Description><StartTime><Timestamp dt:dt=""int"">0</Timestamp><DateUtc dt:dt=""string"">2017-12-05T19:18:40Z</DateUtc></StartTime><FrequencyChanges><FrequencyChange><Frequency dt:dt=""r8"">2922978</Frequency><Timestamp dt:dt=""r8"">746266531998</Timestamp><Current dt:dt=""r8"">0</Current><DateUtc dt:dt=""string"">2017-12-05T19:18:40Z</DateUtc></FrequencyChange></FrequencyChanges></Clock>\n",RMEBPD Clinical Cog Load (2.13-2898-1,60.007,1.0.0.401,1,IC,-1057193573,Professional,2.0.10.353,2.0.10.353,12/5/2017,12/5/2017 19:18,14:18:40,2.0.10.248,1,,,,,,,?,1,1,1,,,,,,,,,,,STAI,,,,,,,,,BlockList,,,,,,,,,2018,879184,14,,,,,,,,,,,,,,STAI14.bmp,,,,,,,,,,,,,,,,,STAIProc,,,,,,,,,,,,STAIQuestions,14,1,14,3,21759,978349
RMEBPD Clinical Cog Load (2.13,2898,1,"<?xml version=""1.0""?>\n<Clock xmlns:dt=""urn:schemas-microsoft-com:datatypes""><Description dt:dt=""string"">E-Prime Primary Realtime Clock</Description><StartTime><Timestamp dt:dt=""int"">0</Timestamp><DateUtc dt:dt=""string"">2017-12-05T19:18:40Z</DateUtc></StartTime><FrequencyChanges><FrequencyChange><Frequency dt:dt=""r8"">2922978</Frequency><Timestamp dt:dt=""r8"">746266531998</Timestamp><Current dt:dt=""r8"">0</Current><DateUtc dt:dt=""string"">2017-12-05T19:18:40Z</DateUtc></FrequencyChange></FrequencyChanges></Clock>\n",RMEBPD Clinical Cog Load (2.13-2898-1,60.007,1.0.0.401,1,IC,-1057193573,Professional,2.0.10.353,2.0.10.353,12/5/2017,12/5/2017 19:18,14:18:40,2.0.10.248,1,,,,,,,?,1,1,1,,,,,,,,,,,STAI,,,,,,,,,BlockList,,,,,,,,,2018,879184,15,,,,,,,,,,,,,,STAI15.bmp,,,,,,,,,,,,,,,,,STAIProc,,,,,,,,,,,,STAIQuestions,15,1,15,1,1501,980089
RMEBPD Clinical Cog Load (2.13,2898,1,"<?xml version=""1.0""?>\n<Clock xmlns:dt=""urn:schemas-microsoft-com:datatypes""><Description dt:dt=""string"">E-Prime Primary Realtime Clock</Description><StartTime><Timestamp dt:dt=""int"">0</Timestamp><DateUtc dt:dt=""string"">2017-12-05T19:18:40Z</DateUtc></StartTime><FrequencyChanges><FrequencyChange><Frequency dt:dt=""r8"">2922978</Frequency><Timestamp dt:dt=""r8"">746266531998</Timestamp><Current dt:dt=""r8"">0</Current><DateUtc dt:dt=""string"">2017-12-05T19:18:40Z</DateUtc></FrequencyChange></FrequencyChanges></Clock>\n",RMEBPD Clinical Cog Load (2.13-2898-1,60.007,1.0.0.401,1,IC,-1057193573,Professional,2.0.10.353,2.0.10.353,12/5/2017,12/5/2017 19:18,14:18:40,2.0.10.248,1,,,,,,,?,1,1,1,,,,,,,,,,,STAI,,,,,,,,,BlockList,,,,,,,,,2018,879184,16,,,,,,,,,,,,,,STAI16.bmp,,,,,,,,,,,,,,,,,STAIProc,,,,,,,,,,,,STAIQuestions,16,1,16,2,4473,984778
RMEBPD Clinical Cog Load (2.13,2898,1,"<?xml version=""1.0""?>\n<Clock xmlns:dt=""urn:schemas-microsoft-com:datatypes""><Description dt:dt=""string"">E-Prime Primary Realtime Clock</Description><StartTime><Timestamp dt:dt=""int"">0</Timestamp><DateUtc dt:dt=""string"">2017-12-05T19:18:40Z</DateUtc></StartTime><FrequencyChanges><FrequencyChange><Frequency dt:dt=""r8"">2922978</Frequency><Timestamp dt:dt=""r8"">746266531998</Timestamp><Current dt:dt=""r8"">0</Current><DateUtc dt:dt=""string"">2017-12-05T19:18:40Z</DateUtc></FrequencyChange></FrequencyChanges></Clock>\n",RMEBPD Clinical Cog Load (2.13-2898-1,60.007,1.0.0.401,1,IC,-1057193573,Professional,2.0.10.353,2.0.10.353,12/5/2017,12/5/2017 19:18,14:18:40,2.0.10.248,1,,,,,,,?,1,1,1,,,,,,,,,,,STAI,,,,,,,,,BlockList,,,,,,,,,2018,879184,17,,,,,,,,,,,,,,STAI17.bmp,,,,,,,,,,,,,,,,,STAIProc,,,,,,,,,,,,STAIQuestions,17,1,17,1,1144,986115
RMEBPD Clinical Cog Load (2.13,2898,1,"<?xml version=""1.0""?>\n<Clock xmlns:dt=""urn:schemas-microsoft-com:datatypes""><Description dt:dt=""string"">E-Prime Primary Realtime Clock</Description><StartTime><Timestamp dt:dt=""int"">0</Timestamp><DateUtc dt:dt=""string"">2017-12-05T19:18:40Z</DateUtc></StartTime><FrequencyChanges><FrequencyChange><Frequency dt:dt=""r8"">2922978</Frequency><Timestamp dt:dt=""r8"">746266531998</Timestamp><Current dt:dt=""r8"">0</Current><DateUtc dt:dt=""string"">2017-12-05T19:18:40Z</DateUtc></FrequencyChange></FrequencyChanges></Clock>\n",RMEBPD Clinical Cog Load (2.13-2898-1,60.007,1.0.0.401,1,IC,-1057193573,Professional,2.0.10.353,2.0.10.353,12/5/2017,12/5/2017 19:18,14:18:40,2.0.10.248,1,,,,,,,?,1,1,1,,,,,,,,,,,STAI,,,,,,,,,BlockList,,,,,,,,,2018,879184,18,,,,,,,,,,,,,,STAI18.bmp,,,,,,,,,,,,,,,,,STAIProc,,,,,,,,,,,,STAIQuestions,18,1,18,1,23392,1009729
RMEBPD Clinical Cog Load (2.13,2898,1,"<?xml version=""1.0""?>\n<Clock xmlns:dt=""urn:schemas-microsoft-com:datatypes""><Description dt:dt=""string"">E-Prime Primary Realtime Clock</Description><StartTime><Timestamp dt:dt=""int"">0</Timestamp><DateUtc dt:dt=""string"">2017-12-05T19:18:40Z</DateUtc></StartTime><FrequencyChanges><FrequencyChange><Frequency dt:dt=""r8"">2922978</Frequency><Timestamp dt:dt=""r8"">746266531998</Timestamp><Current dt:dt=""r8"">0</Current><DateUtc dt:dt=""string"">2017-12-05T19:18:40Z</DateUtc></FrequencyChange></FrequencyChanges></Clock>\n",RMEBPD Clinical Cog Load (2.13-2898-1,60.007,1.0.0.401,1,IC,-1057193573,Professional,2.0.10.353,2.0.10.353,12/5/2017,12/5/2017 19:18,14:18:40,2.0.10.248,1,,,,,,,?,1,1,1,,,,,,,,,,,STAI,,,,,,,,,BlockList,,,,,,,,,2018,879184,19,,,,,,,,,,,,,,STAI19.bmp,,,,,,,,,,,,,,,,,STAIProc,,,,,,,,,,,,STAIQuestions,19,1,19,1,1388,1011273
RMEBPD Clinical Cog Load (2.13,2898,1,"<?xml version=""1.0""?>\n<Clock xmlns:dt=""urn:schemas-microsoft-com:datatypes""><Description dt:dt=""string"">E-Prime Primary Realtime Clock</Description><StartTime><Timestamp dt:dt=""int"">0</Timestamp><DateUtc dt:dt=""string"">2017-12-05T19:18:40Z</DateUtc></StartTime><FrequencyChanges><FrequencyChange><Frequency dt:dt=""r8"">2922978</Frequency><Timestamp dt:dt=""r8"">746266531998</Timestamp><Current dt:dt=""r8"">0</Current><DateUtc dt:dt=""string"">2017-12-05T19:18:40Z</DateUtc></FrequencyChange></FrequencyChanges></Clock>\n",RMEBPD Clinical Cog Load (2.13-2898-1,60.007,1.0.0.401,1,IC,-1057193573,Professional,2.0.10.353,2.0.10.353,12/5/2017,12/5/2017 19:18,14:18:40,2.0.10.248,1,,,,,,,?,1,1,1,,,,,,,,,,,STAI,,,,,,,,,BlockList,,,,,,,,,2018,879184,20,,,,,,,,,,,,,,STAI20.bmp,,,,,,,,,,,,,,,,,STAIProc,,,,,,,,,,,,STAIQuestions,20,1,20,1,631,1012066
RMEBPD Clinical Cog Load (2.13,2898,1,"<?xml version=""1.0""?>\n<Clock xmlns:dt=""urn:schemas-microsoft-com:datatypes""><Description dt:dt=""string"">E-Prime Primary Realtime Clock</Description><StartTime><Timestamp dt:dt=""int"">0</Timestamp><DateUtc dt:dt=""string"">2017-12-05T19:18:40Z</DateUtc></StartTime><FrequencyChanges><FrequencyChange><Frequency dt:dt=""r8"">2922978</Frequency><Timestamp dt:dt=""r8"">746266531998</Timestamp><Current dt:dt=""r8"">0</Current><DateUtc dt:dt=""string"">2017-12-05T19:18:40Z</DateUtc></FrequencyChange></FrequencyChanges></Clock>\n",RMEBPD Clinical Cog Load (2.13-2898-1,60.007,1.0.0.401,1,IC,-1057193573,Professional,2.0.10.353,2.0.10.353,12/5/2017,12/5/2017 19:18,14:18:40,2.0.10.248,2,,,,,,,?,2,1,2,,,,,,,,,1196,1013380,PANAS,,,,,,,,,BlockList,,,,,,,,,,,1,,,,,,,,,,,,,,PANAS01.bmp,,,,,,,,,,,1,1,1,3,21383,1034951,PANASProc,,,,,,,,,,,,PANASQuestions,,,,,,
RMEBPD Clinical Cog Load (2.13,2898,1,"<?xml version=""1.0""?>\n<Clock xmlns:dt=""urn:schemas-microsoft-com:datatypes""><Description dt:dt=""string"">E-Prime Primary Realtime Clock</Description><StartTime><Timestamp dt:dt=""int"">0</Timestamp><DateUtc dt:dt=""string"">2017-12-05T19:18:40Z</DateUtc></StartTime><FrequencyChanges><FrequencyChange><Frequency dt:dt=""r8"">2922978</Frequency><Timestamp dt:dt=""r8"">746266531998</Timestamp><Current dt:dt=""r8"">0</Current><DateUtc dt:dt=""string"">2017-12-05T19:18:40Z</DateUtc></FrequencyChange></FrequencyChanges></Clock>\n",RMEBPD Clinical Cog Load (2.13-2898-1,60.007,1.0.0.401,1,IC,-1057193573,Professional,2.0.10.353,2.0.10.353,12/5/2017,12/5/2017 19:18,14:18:40,2.0.10.248,2,,,,,,,?,2,1,2,,,,,,,,,1196,1013380,PANAS,,,,,,,,,BlockList,,,,,,,,,,,2,,,,,,,,,,,,,,PANAS02.bmp,,,,,,,,,,,2,1,2,5,3123,1038205,PANASProc,,,,,,,,,,,,PANASQuestions,,,,,,
RMEBPD Clinical Cog Load (2.13,2898,1,"<?xml version=""1.0""?>\n<Clock xmlns:dt=""urn:schemas-microsoft-com:datatypes""><Description dt:dt=""string"">E-Prime Primary Realtime Clock</Description><StartTime><Timestamp dt:dt=""int"">0</Timestamp><DateUtc dt:dt=""string"">2017-12-05T19:18:40Z</DateUtc></StartTime><FrequencyChanges><FrequencyChange><Frequency dt:dt=""r8"">2922978</Frequency><Timestamp dt:dt=""r8"">746266531998</Timestamp><Current dt:dt=""r8"">0</Current><DateUtc dt:dt=""string"">2017-12-05T19:18:40Z</DateUtc></FrequencyChange></FrequencyChanges></Clock>\n",RMEBPD Clinical Cog Load (2.13-2898-1,60.007,1.0.0.401,1,IC,-1057193573,Professional,2.0.10.353,2.0.10.353,12/5/2017,12/5/2017 19:18,14:18:40,2.0.10.248,2,,,,,,,?,2,1,2,,,,,,,,,1196,1013380,PANAS,,,,,,,,,BlockList,,,,,,,,,,,3,,,,,,,,,,,,,,PANAS03.bmp,,,,,,,,,,,3,1,3,4,4207,1042539,PANASProc,,,,,,,,,,,,PANASQuestions,,,,,,
RMEBPD Clinical Cog Load (2.13,2898,1,"<?xml version=""1.0""?>\n<Clock xmlns:dt=""urn:schemas-microsoft-com:datatypes""><Description dt:dt=""string"">E-Prime Primary Realtime Clock</Description><StartTime><Timestamp dt:dt=""int"">0</Timestamp><DateUtc dt:dt=""string"">2017-12-05T19:18:40Z</DateUtc></StartTime><FrequencyChanges><FrequencyChange><Frequency dt:dt=""r8"">2922978</Frequency><Timestamp dt:dt=""r8"">746266531998</Timestamp><Current dt:dt=""r8"">0</Current><DateUtc dt:dt=""string"">2017-12-05T19:18:40Z</DateUtc></FrequencyChange></FrequencyChanges></Clock>\n",RMEBPD Clinical Cog Load (2.13-2898-1,60.007,1.0.0.401,1,IC,-1057193573,Professional,2.0.10.353,2.0.10.353,12/5/2017,12/5/2017 19:18,14:18:40,2.0.10.248,2,,,,,,,?,2,1,2,,,,,,,,,1196,1013380,PANAS,,,,,,,,,BlockList,,,,,,,,,,,4,,,,,,,,,,,,,,PANAS04.bmp,,,,,,,,,,,4,1,4,3,1880,1044544,PANASProc,,,,,,,,,,,,PANASQuestions,,,,,,
RMEBPD Clinical Cog Load (2.13,2898,1,"<?xml version=""1.0""?>\n<Clock xmlns:dt=""urn:schemas-microsoft-com:datatypes""><Description dt:dt=""string"">E-Prime Primary Realtime Clock</Description><StartTime><Timestamp dt:dt=""int"">0</Timestamp><DateUtc dt:dt=""string"">2017-12-05T19:18:40Z</DateUtc></StartTime><FrequencyChanges><FrequencyChange><Frequency dt:dt=""r8"">2922978</Frequency><Timestamp dt:dt=""r8"">746266531998</Timestamp><Current dt:dt=""r8"">0</Current><DateUtc dt:dt=""string"">2017-12-05T19:18:40Z</DateUtc></FrequencyChange></FrequencyChanges></Clock>\n",RMEBPD Clinical Cog Load (2.13-2898-1,60.007,1.0.0.401,1,IC,-1057193573,Professional,2.0.10.353,2.0.10.353,12/5/2017,12/5/2017 19:18,14:18:40,2.0.10.248,2,,,,,,,?,2,1,2,,,,,,,,,1196,1013380,PANAS,,,,,,,,,BlockList,,,,,,,,,,,5,,,,,,,,,,,,,,PANAS05.bmp,,,,,,,,,,,5,1,5,1,1975,1046656,PANASProc,,,,,,,,,,,,PANASQuestions,,,,,,
RMEBPD Clinical Cog Load (2.13,2898,1,"<?xml version=""1.0""?>\n<Clock xmlns:dt=""urn:schemas-microsoft-com:datatypes""><Description dt:dt=""string"">E-Prime Primary Realtime Clock</Description><StartTime><Timestamp dt:dt=""int"">0</Timestamp><DateUtc dt:dt=""string"">2017-12-05T19:18:40Z</DateUtc></StartTime><FrequencyChanges><FrequencyChange><Frequency dt:dt=""r8"">2922978</Frequency><Timestamp dt:dt=""r8"">746266531998</Timestamp><Current dt:dt=""r8"">0</Current><DateUtc dt:dt=""string"">2017-12-05T19:18:40Z</DateUtc></FrequencyChange></FrequencyChanges></Clock>\n",RMEBPD Clinical Cog Load (2.13-2898-1,60.007,1.0.0.401,1,IC,-1057193573,Professional,2.0.10.353,2.0.10.353,12/5/2017,12/5/2017 19:18,14:18:40,2.0.10.248,2,,,,,,,?,2,1,2,,,,,,,,,1196,1013380,PANAS,,,,,,,,,BlockList,,,,,,,,,,,6,,,,,,,,,,,,,,PANAS06.bmp,,,,,,,,,,,6,1,6,5,1811,1048592,PANASProc,,,,,,,,,,,,PANASQuestions,,,,,,
RMEBPD Clinical Cog Load (2.13,2898,1,"<?xml version=""1.0""?>\n<Clock xmlns:dt=""urn:schemas-microsoft-com:datatypes""><Description dt:dt=""string"">E-Prime Primary Realtime Clock</Description><StartTime><Timestamp dt:dt=""int"">0</Timestamp><DateUtc dt:dt=""string"">2017-12-05T19:18:40Z</DateUtc></StartTime><FrequencyChanges><FrequencyChange><Frequency dt:dt=""r8"">2922978</Frequency><Timestamp dt:dt=""r8"">746266531998</Timestamp><Current dt:dt=""r8"">0</Current><DateUtc dt:dt=""string"">2017-12-05T19:18:40Z</DateUtc></FrequencyChange></FrequencyChanges></Clock>\n",RMEBPD Clinical Cog Load (2.13-2898-1,60.007,1.0.0.401,1,IC,-1057193573,Professional,2.0.10.353,2.0.10.353,12/5/2017,12/5/2017 19:18,14:18:40,2.0.10.248,2,,,,,,,?,2,1,2,,,,,,,,,1196,1013380,PANAS,,,,,,,,,BlockList,,,,,,,,,,,7,,,,,,,,,,,,,,PANAS07.bmp,,,,,,,,,,,7,1,7,1,1239,1049969,PANASProc,,,,,,,,,,,,PANASQuestions,,,,,,
RMEBPD Clinical Cog Load (2.13,2898,1,"<?xml version=""1.0""?>\n<Clock xmlns:dt=""urn:schemas-microsoft-com:datatypes""><Description dt:dt=""string"">E-Prime Primary Realtime Clock</Description><StartTime><Timestamp dt:dt=""int"">0</Timestamp><DateUtc dt:dt=""string"">2017-12-05T19:18:40Z</DateUtc></StartTime><FrequencyChanges><FrequencyChange><Frequency dt:dt=""r8"">2922978</Frequency><Timestamp dt:dt=""r8"">746266531998</Timestamp><Current dt:dt=""r8"">0</Current><DateUtc dt:dt=""string"">2017-12-05T19:18:40Z</DateUtc></FrequencyChange></FrequencyChanges></Clock>\n",RMEBPD Clinical Cog Load (2.13-2898-1,60.007,1.0.0.401,1,IC,-1057193573,Professional,2.0.10.353,2.0.10.353,12/5/2017,12/5/2017 19:18,14:18:40,2.0.10.248,2,,,,,,,?,2,1,2,,,,,,,,,1196,1013380,PANAS,,,,,,,,,BlockList,,,,,,,,,,,8,,,,,,,,,,,,,,PANAS08.bmp,,,,,,,,,,,8,1,8,5,1274,1051371,PANASProc,,,,,,,,,,,,PANASQuestions,,,,,,
RMEBPD Clinical Cog Load (2.13,2898,1,"<?xml version=""1.0""?>\n<Clock xmlns:dt=""urn:schemas-microsoft-com:datatypes""><Description dt:dt=""string"">E-Prime Primary Realtime Clock</Description><StartTime><Timestamp dt:dt=""int"">0</Timestamp><DateUtc dt:dt=""string"">2017-12-05T19:18:40Z</DateUtc></StartTime><FrequencyChanges><FrequencyChange><Frequency dt:dt=""r8"">2922978</Frequency><Timestamp dt:dt=""r8"">746266531998</Timestamp><Current dt:dt=""r8"">0</Current><DateUtc dt:dt=""string"">2017-12-05T19:18:40Z</DateUtc></FrequencyChange></FrequencyChanges></Clock>\n",RMEBPD Clinical Cog Load (2.13-2898-1,60.007,1.0.0.401,1,IC,-1057193573,Professional,2.0.10.353,2.0.10.353,12/5/2017,12/5/2017 19:18,14:18:40,2.0.10.248,2,,,,,,,?,2,1,2,,,,,,,,,1196,1013380,PANAS,,,,,,,,,BlockList,,,,,,,,,,,9,,,,,,,,,,,,,,PANAS09.bmp,,,,,,,,,,,9,1,9,4,3044,1054608,PANASProc,,,,,,,,,,,,PANASQuestions,,,,,,
RMEBPD Clinical Cog Load (2.13,2898,1,"<?xml version=""1.0""?>\n<Clock xmlns:dt=""urn:schemas-microsoft-com:datatypes""><Description dt:dt=""string"">E-Prime Primary Realtime Clock</Description><StartTime><Timestamp dt:dt=""int"">0</Timestamp><DateUtc dt:dt=""string"">2017-12-05T19:18:40Z</DateUtc></StartTime><FrequencyChanges><FrequencyChange><Frequency dt:dt=""r8"">2922978</Frequency><Timestamp dt:dt=""r8"">746266531998</Timestamp><Current dt:dt=""r8"">0</Current><DateUtc dt:dt=""string"">2017-12-05T19:18:40Z</DateUtc></FrequencyChange></FrequencyChanges></Clock>\n",RMEBPD Clinical Cog Load (2.13-2898-1,60.007,1.0.0.401,1,IC,-1057193573,Professional,2.0.10.353,2.0.10.353,12/5/2017,12/5/2017 19:18,14:18:40,2.0.10.248,2,,,,,,,?,2,1,2,,,,,,,,,1196,1013380,PANAS,,,,,,,,,BlockList,,,,,,,,,,,10,,,,,,,,,,,,,,PANAS10.bmp,,,,,,,,,,,10,1,10,1,1532,1056279,PANASProc,,,,,,,,,,,,PANASQuestions,,,,,,
RMEBPD Clinical Cog Load (2.13,2898,1,"<?xml version=""1.0""?>\n<Clock xmlns:dt=""urn:schemas-microsoft-com:datatypes""><Description dt:dt=""string"">E-Prime Primary Realtime Clock</Description><StartTime><Timestamp dt:dt=""int"">0</Timestamp><DateUtc dt:dt=""string"">2017-12-05T19:18:40Z</DateUtc></StartTime><FrequencyChanges><FrequencyChange><Frequency dt:dt=""r8"">2922978</Frequency><Timestamp dt:dt=""r8"">746266531998</Timestamp><Current dt:dt=""r8"">0</Current><DateUtc dt:dt=""string"">2017-12-05T19:18:40Z</DateUtc></FrequencyChange></FrequencyChanges></Clock>\n",RMEBPD Clinical Cog Load (2.13-2898-1,60.007,1.0.0.401,1,IC,-1057193573,Professional,2.0.10.353,2.0.10.353,12/5/2017,12/5/2017 19:18,14:18:40,2.0.10.248,2,,,,,,,?,2,1,2,,,,,,,,,1196,1013380,PANAS,,,,,,,,,BlockList,,,,,,,,,,,11,,,,,,,,,,,,,,PANAS11.bmp,,,,,,,,,,,11,1,11,1,1402,1057815,PANASProc,,,,,,,,,,,,PANASQuestions,,,,,,
RMEBPD Clinical Cog Load (2.13,2898,1,"<?xml version=""1.0""?>\n<Clock xmlns:dt=""urn:schemas-microsoft-com:datatypes""><Description dt:dt=""string"">E-Prime Primary Realtime Clock</Description><StartTime><Timestamp dt:dt=""int"">0</Timestamp><DateUtc dt:dt=""string"">2017-12-05T19:18:40Z</DateUtc></StartTime><FrequencyChanges><FrequencyChange><Frequency dt:dt=""r8"">2922978</Frequency><Timestamp dt:dt=""r8"">746266531998</Timestamp><Current dt:dt=""r8"">0</Current><DateUtc dt:dt=""string"">2017-12-05T19:18:40Z</DateUtc></FrequencyChange></FrequencyChanges></Clock>\n",RMEBPD Clinical Cog Load (2.13-2898-1,60.007,1.0.0.401,1,IC,-1057193573,Professional,2.0.10.353,2.0.10.353,12/5/2017,12/5/2017 19:18,14:18:40,2.0.10.248,2,,,,,,,?,2,1,2,,,,,,,,,1196,1013380,PANAS,,,,,,,,,BlockList,,,,,,,,,,,12,,,,,,,,,,,,,,PANAS12.bmp,,,,,,,,,,,12,1,12,2,4125,1062088,PANASProc,,,,,,,,,,,,PANASQuestions,,,,,,
RMEBPD Clinical Cog Load (2.13,2898,1,"<?xml version=""1.0""?>\n<Clock xmlns:dt=""urn:schemas-microsoft-com:datatypes""><Description dt:dt=""string"">E-Prime Primary Realtime Clock</Description><StartTime><Timestamp dt:dt=""int"">0</Timestamp><DateUtc dt:dt=""string"">2017-12-05T19:18:40Z</DateUtc></StartTime><FrequencyChanges><FrequencyChange><Frequency dt:dt=""r8"">2922978</Frequency><Timestamp dt:dt=""r8"">746266531998</Timestamp><Current dt:dt=""r8"">0</Current><DateUtc dt:dt=""string"">2017-12-05T19:18:40Z</DateUtc></FrequencyChange></FrequencyChanges></Clock>\n",RMEBPD Clinical Cog Load (2.13-2898-1,60.007,1.0.0.401,1,IC,-1057193573,Professional,2.0.10.353,2.0.10.353,12/5/2017,12/5/2017 19:18,14:18:40,2.0.10.248,2,,,,,,,?,2,1,2,,,,,,,,,1196,1013380,PANAS,,,,,,,,,BlockList,,,,,,,,,,,13,,,,,,,,,,,,,,PANAS13.bmp,,,,,,,,,,,13,1,13,5,1348,1063577,PANASProc,,,,,,,,,,,,PANASQuestions,,,,,,
RMEBPD Clinical Cog Load (2.13,2898,1,"<?xml version=""1.0""?>\n<Clock xmlns:dt=""urn:schemas-microsoft-com:datatypes""><Description dt:dt=""string"">E-Prime Primary Realtime Clock</Description><StartTime><Timestamp dt:dt=""int"">0</Timestamp><DateUtc dt:dt=""string"">2017-12-05T19:18:40Z</DateUtc></StartTime><FrequencyChanges><FrequencyChange><Frequency dt:dt=""r8"">2922978</Frequency><Timestamp dt:dt=""r8"">746266531998</Timestamp><Current dt:dt=""r8"">0</Current><DateUtc dt:dt=""string"">2017-12-05T19:18:40Z</DateUtc></FrequencyChange></FrequencyChanges></Clock>\n",RMEBPD Clinical Cog Load (2.13-2898-1,60.007,1.0.0.401,1,IC,-1057193573,Professional,2.0.10.353,2.0.10.353,12/5/2017,12/5/2017 19:18,14:18:40,2.0.10.248,2,,,,,,,?,2,1,2,,,,,,,,,1196,1013380,PANAS,,,,,,,,,BlockList,,,,,,,,,,,14,,,,,,,,,,,,,,PANAS14.bmp,,,,,,,,,,,14,1,14,3,2076,1065788,PANASProc,,,,,,,,,,,,PANASQuestions,,,,,,
RMEBPD Clinical Cog Load (2.13,2898,1,"<?xml version=""1.0""?>\n<Clock xmlns:dt=""urn:schemas-microsoft-com:datatypes""><Description dt:dt=""string"">E-Prime Primary Realtime Clock</Description><StartTime><Timestamp dt:dt=""int"">0</Timestamp><DateUtc dt:dt=""string"">2017-12-05T19:18:40Z</DateUtc></StartTime><FrequencyChanges><FrequencyChange><Frequency dt:dt=""r8"">2922978</Frequency><Timestamp dt:dt=""r8"">746266531998</Timestamp><Current dt:dt=""r8"">0</Current><DateUtc dt:dt=""string"">2017-12-05T19:18:40Z</DateUtc></FrequencyChange></FrequencyChanges></Clock>\n",RMEBPD Clinical Cog Load (2.13-2898-1,60.007,1.0.0.401,1,IC,-1057193573,Professional,2.0.10.353,2.0.10.353,12/5/2017,12/5/2017 19:18,14:18:40,2.0.10.248,2,,,,,,,?,2,1,2,,,,,,,,,1196,1013380,PANAS,,,,,,,,,BlockList,,,,,,,,,,,15,,,,,,,,,,,,,,PANAS15.bmp,,,,,,,,,,,15,1,15,3,3596,1069525,PANASProc,,,,,,,,,,,,PANASQuestions,,,,,,
RMEBPD Clinical Cog Load (2.13,2898,1,"<?xml version=""1.0""?>\n<Clock xmlns:dt=""urn:schemas-microsoft-com:datatypes""><Description dt:dt=""string"">E-Prime Primary Realtime Clock</Description><StartTime><Timestamp dt:dt=""int"">0</Timestamp><DateUtc dt:dt=""string"">2017-12-05T19:18:40Z</DateUtc></StartTime><FrequencyChanges><FrequencyChange><Frequency dt:dt=""r8"">2922978</Frequency><Timestamp dt:dt=""r8"">746266531998</Timestamp><Current dt:dt=""r8"">0</Current><DateUtc dt:dt=""string"">2017-12-05T19:18:40Z</DateUtc></FrequencyChange></FrequencyChanges></Clock>\n",RMEBPD Clinical Cog Load (2.13-2898-1,60.007,1.0.0.401,1,IC,-1057193573,Professional,2.0.10.353,2.0.10.353,12/5/2017,12/5/2017 19:18,14:18:40,2.0.10.248,2,,,,,,,?,2,1,2,,,,,,,,,1196,1013380,PANAS,,,,,,,,,BlockList,,,,,,,,,,,16,,,,,,,,,,,,,,PANAS16.bmp,,,,,,,,,,,16,1,16,5,1140,1070802,PANASProc,,,,,,,,,,,,PANASQuestions,,,,,,
RMEBPD Clinical Cog Load (2.13,2898,1,"<?xml version=""1.0""?>\n<Clock xmlns:dt=""urn:schemas-microsoft-com:datatypes""><Description dt:dt=""string"">E-Prime Primary Realtime Clock</Description><StartTime><Timestamp dt:dt=""int"">0</Timestamp><DateUtc dt:dt=""string"">2017-12-05T19:18:40Z</DateUtc></StartTime><FrequencyChanges><FrequencyChange><Frequency dt:dt=""r8"">2922978</Frequency><Timestamp dt:dt=""r8"">746266531998</Timestamp><Current dt:dt=""r8"">0</Current><DateUtc dt:dt=""string"">2017-12-05T19:18:40Z</DateUtc></FrequencyChange></FrequencyChanges></Clock>\n",RMEBPD Clinical Cog Load (2.13-2898-1,60.007,1.0.0.401,1,IC,-1057193573,Professional,2.0.10.353,2.0.10.353,12/5/2017,12/5/2017 19:18,14:18:40,2.0.10.248,2,,,,,,,?,2,1,2,,,,,,,,,1196,1013380,PANAS,,,,,,,,,BlockList,,,,,,,,,,,17,,,,,,,,,,,,,,PANAS17.bmp,,,,,,,,,,,17,1,17,2,4558,1075503,PANASProc,,,,,,,,,,,,PANASQuestions,,,,,,
RMEBPD Clinical Cog Load (2.13,2898,1,"<?xml version=""1.0""?>\n<Clock xmlns:dt=""urn:schemas-microsoft-com:datatypes""><Description dt:dt=""string"">E-Prime Primary Realtime Clock</Description><StartTime><Timestamp dt:dt=""int"">0</Timestamp><DateUtc dt:dt=""string"">2017-12-05T19:18:40Z</DateUtc></StartTime><FrequencyChanges><FrequencyChange><Frequency dt:dt=""r8"">2922978</Frequency><Timestamp dt:dt=""r8"">746266531998</Timestamp><Current dt:dt=""r8"">0</Current><DateUtc dt:dt=""string"">2017-12-05T19:18:40Z</DateUtc></FrequencyChange></FrequencyChanges></Clock>\n",RMEBPD Clinical Cog Load (2.13-2898-1,60.007,1.0.0.401,1,IC,-1057193573,Professional,2.0.10.353,2.0.10.353,12/5/2017,12/5/2017 19:18,14:18:40,2.0.10.248,2,,,,,,,?,2,1,2,,,,,,,,,1196,1013380,PANAS,,,,,,,,,BlockList,,,,,,,,,,,18,,,,,,,,,,,,,,PANAS18.bmp,,,,,,,,,,,18,1,18,3,1720,1077348,PANASProc,,,,,,,,,,,,PANASQuestions,,,,,,
RMEBPD Clinical Cog Load (2.13,2898,1,"<?xml version=""1.0""?>\n<Clock xmlns:dt=""urn:schemas-microsoft-com:datatypes""><Description dt:dt=""string"">E-Prime Primary Realtime Clock</Description><StartTime><Timestamp dt:dt=""int"">0</Timestamp><DateUtc dt:dt=""string"">2017-12-05T19:18:40Z</DateUtc></StartTime><FrequencyChanges><FrequencyChange><Frequency dt:dt=""r8"">2922978</Frequency><Timestamp dt:dt=""r8"">746266531998</Timestamp><Current dt:dt=""r8"">0</Current><DateUtc dt:dt=""string"">2017-12-05T19:18:40Z</DateUtc></FrequencyChange></FrequencyChanges></Clock>\n",RMEBPD Clinical Cog Load (2.13-2898-1,60.007,1.0.0.401,1,IC,-1057193573,Professional,2.0.10.353,2.0.10.353,12/5/2017,12/5/2017 19:18,14:18:40,2.0.10.248,2,,,,,,,?,2,1,2,,,,,,,,,1196,1013380,PANAS,,,,,,,,,BlockList,,,,,,,,,,,19,,,,,,,,,,,,,,PANAS19.bmp,,,,,,,,,,,19,1,19,3,2002,1079496,PANASProc,,,,,,,,,,,,PANASQuestions,,,,,,
RMEBPD Clinical Cog Load (2.13,2898,1,"<?xml version=""1.0""?>\n<Clock xmlns:dt=""urn:schemas-microsoft-com:datatypes""><Description dt:dt=""string"">E-Prime Primary Realtime Clock</Description><StartTime><Timestamp dt:dt=""int"">0</Timestamp><DateUtc dt:dt=""string"">2017-12-05T19:18:40Z</DateUtc></StartTime><FrequencyChanges><FrequencyChange><Frequency dt:dt=""r8"">2922978</Frequency><Timestamp dt:dt=""r8"">746266531998</Timestamp><Current dt:dt=""r8"">0</Current><DateUtc dt:dt=""string"">2017-12-05T19:18:40Z</DateUtc></FrequencyChange></FrequencyChanges></Clock>\n",RMEBPD Clinical Cog Load (2.13-2898-1,60.007,1.0.0.401,1,IC,-1057193573,Professional,2.0.10.353,2.0.10.353,12/5/2017,12/5/2017 19:18,14:18:40,2.0.10.248,2,,,,,,,?,2,1,2,,,,,,,,,1196,1013380,PANAS,,,,,,,,,BlockList,,,,,,,,,,,20,,,,,,,,,,,,,,PANAS20.bmp,,,,,,,,,,,20,1,20,3,1501,1081228,PANASProc,,,,,,,,,,,,PANASQuestions,,,,,,
RMEBPD Clinical Cog Load (2.13,2898,1,"<?xml version=""1.0""?>\n<Clock xmlns:dt=""urn:schemas-microsoft-com:datatypes""><Description dt:dt=""string"">E-Prime Primary Realtime Clock</Description><StartTime><Timestamp dt:dt=""int"">0</Timestamp><DateUtc dt:dt=""string"">2017-12-05T19:18:40Z</DateUtc></StartTime><FrequencyChanges><FrequencyChange><Frequency dt:dt=""r8"">2922978</Frequency><Timestamp dt:dt=""r8"">746266531998</Timestamp><Current dt:dt=""r8"">0</Current><DateUtc dt:dt=""string"">2017-12-05T19:18:40Z</DateUtc></FrequencyChange></FrequencyChanges></Clock>\n",RMEBPD Clinical Cog Load (2.13-2898-1,60.007,1.0.0.401,1,IC,-1057193573,Professional,2.0.10.353,2.0.10.353,12/5/2017,12/5/2017 19:18,14:18:40,2.0.10.248,2,,,,,,,?,2,1,2,,,,,,,,,1196,1013380,PANAS,,,,,,,,,BlockList,,,,,,,,,,,21,,,,,,,,,,,,,,PANAS21.bmp,,,,,,,,,,,21,1,21,1,3488,1084898,PANASProc,,,,,,,,,,,,PANASQuestions,,,,,,
RMEBPD Clinical Cog Load (2.13,2898,1,"<?xml version=""1.0""?>\n<Clock xmlns:dt=""urn:schemas-microsoft-com:datatypes""><Description dt:dt=""string"">E-Prime Primary Realtime Clock</Description><StartTime><Timestamp dt:dt=""int"">0</Timestamp><DateUtc dt:dt=""string"">2017-12-05T19:18:40Z</DateUtc></StartTime><FrequencyChanges><FrequencyChange><Frequency dt:dt=""r8"">2922978</Frequency><Timestamp dt:dt=""r8"">746266531998</Timestamp><Current dt:dt=""r8"">0</Current><DateUtc dt:dt=""string"">2017-12-05T19:18:40Z</DateUtc></FrequencyChange></FrequencyChanges></Clock>\n",RMEBPD Clinical Cog Load (2.13-2898-1,60.007,1.0.0.401,1,IC,-1057193573,Professional,2.0.10.353,2.0.10.353,12/5/2017,12/5/2017 19:18,14:18:40,2.0.10.248,2,,,,,,,?,2,1,2,,,,,,,,,1196,1013380,PANAS,,,,,,,,,BlockList,,,,,,,,,,,22,,,,,,,,,,,,,,PANAS22.bmp,,,,,,,,,,,22,1,22,4,2327,1087387,PANASProc,,,,,,,,,,,,PANASQuestions,,,,,,
RMEBPD Clinical Cog Load (2.13,2898,1,"<?xml version=""1.0""?>\n<Clock xmlns:dt=""urn:schemas-microsoft-com:datatypes""><Description dt:dt=""string"">E-Prime Primary Realtime Clock</Description><StartTime><Timestamp dt:dt=""int"">0</Timestamp><DateUtc dt:dt=""string"">2017-12-05T19:18:40Z</DateUtc></StartTime><FrequencyChanges><FrequencyChange><Frequency dt:dt=""r8"">2922978</Frequency><Timestamp dt:dt=""r8"">746266531998</Timestamp><Current dt:dt=""r8"">0</Current><DateUtc dt:dt=""string"">2017-12-05T19:18:40Z</DateUtc></FrequencyChange></FrequencyChanges></Clock>\n",RMEBPD Clinical Cog Load (2.13-2898-1,60.007,1.0.0.401,1,IC,-1057193573,Professional,2.0.10.353,2.0.10.353,12/5/2017,12/5/2017 19:18,14:18:40,2.0.10.248,3,1,2136,1667084,1,2202,1664917,?,3,1,3,1,1,-999999,85,1179766,1,3545,1183311,,,RME,0,1,-999999,16,1168134,4,11547,1179681,BlockList,0,,-999999,63,1667147,{TAB},1576,1668723,,,1,,,,,,,,,,,,3,2,26 copy.bmp,1,2,-999999,55,1197365,2,1303,1198668,pDF59#1,q,,,,,,,RMEProc,1,3,-999999,66,1193948,3,3362,1197310,26,1,1,RMETrialList,,,,,,
RMEBPD Clinical Cog Load (2.13,2898,1,"<?xml version=""1.0""?>\n<Clock xmlns:dt=""urn:schemas-microsoft-com:datatypes""><Description dt:dt=""string"">E-Prime Primary Realtime Clock</Description><StartTime><Timestamp dt:dt=""int"">0</Timestamp><DateUtc dt:dt=""string"">2017-12-05T19:18:40Z</DateUtc></StartTime><FrequencyChanges><FrequencyChange><Frequency dt:dt=""r8"">2922978</Frequency><Timestamp dt:dt=""r8"">746266531998</Timestamp><Current dt:dt=""r8"">0</Current><DateUtc dt:dt=""string"">2017-12-05T19:18:40Z</DateUtc></FrequencyChange></FrequencyChanges></Clock>\n",RMEBPD Clinical Cog Load (2.13-2898-1,60.007,1.0.0.401,1,IC,-1057193573,Professional,2.0.10.353,2.0.10.353,12/5/2017,12/5/2017 19:18,14:18:40,2.0.10.248,3,1,2136,1667084,1,2202,1664917,?,3,1,3,1,1,-999999,85,1179766,1,3545,1183311,,,RME,0,1,-999999,16,1168134,4,11547,1179681,BlockList,0,,-999999,63,1667147,{TAB},1576,1668723,,,2,,,,,,,,,,,,2,1,31 copy.bmp,1,1,-999999,66,1209913,1,2187,1212100,v9Gu*64,u,,,,,,,RMEProc,0,2,-999999,66,1203814,4,6033,1209847,31,1,2,RMETrialList,,,,,,
RMEBPD Clinical Cog Load (2.13,2898,1,"<?xml version=""1.0""?>\n<Clock xmlns:dt=""urn:schemas-microsoft-com:datatypes""><Description dt:dt=""string"">E-Prime Primary Realtime Clock</Description><StartTime><Timestamp dt:dt=""int"">0</Timestamp><DateUtc dt:dt=""string"">2017-12-05T19:18:40Z</DateUtc></StartTime><FrequencyChanges><FrequencyChange><Frequency dt:dt=""r8"">2922978</Frequency><Timestamp dt:dt=""r8"">746266531998</Timestamp><Current dt:dt=""r8"">0</Current><DateUtc dt:dt=""string"">2017-12-05T19:18:40Z</DateUtc></FrequencyChange></FrequencyChanges></Clock>\n",RMEBPD Clinical Cog Load (2.13-2898-1,60.007,1.0.0.401,1,IC,-1057193573,Professional,2.0.10.353,2.0.10.353,12/5/2017,12/5/2017 19:18,14:18:40,2.0.10.248,3,1,2136,1667084,1,2202,1664917,?,3,1,3,1,1,-999999,85,1179766,1,3545,1183311,,,RME,0,1,-999999,16,1168134,4,11547,1179681,BlockList,0,,-999999,63,1667147,{TAB},1576,1668723,,,3,,,,,,,,,,,,1,2,22 copy.bmp,1,2,-999999,30,1222628,2,1275,1223903,U8#5nq,J,,,,,,,RMEProc,0,1,-999999,82,1217262,4,5336,1222598,22,1,3,RMETrialList,,,,,,
RMEBPD Clinical Cog Load (2.13,2898,1,"<?xml version=""1.0""?>\n<Clock xmlns:dt=""urn:schemas-microsoft-com:datatypes""><Description dt:dt=""string"">E-Prime Primary Realtime Clock</Description><StartTime><Timestamp dt:dt=""int"">0</Timestamp><DateUtc dt:dt=""string"">2017-12-05T19:18:40Z</DateUtc></StartTime><FrequencyChanges><FrequencyChange><Frequency dt:dt=""r8"">2922978</Frequency><Timestamp dt:dt=""r8"">746266531998</Timestamp><Current dt:dt=""r8"">0</Current><DateUtc dt:dt=""string"">2017-12-05T19:18:40Z</DateUtc></FrequencyChange></FrequencyChanges></Clock>\n",RMEBPD Clinical Cog Load (2.13-2898-1,60.007,1.0.0.401,1,IC,-1057193573,Professional,2.0.10.353,2.0.10.353,12/5/2017,12/5/2017 19:18,14:18:40,2.0.10.248,3,1,2136,1667084,1,2202,1664917,?,3,1,3,1,1,-999999,85,1179766,1,3545,1183311,,,RME,0,1,-999999,16,1168134,4,11547,1179681,BlockList,0,,-999999,63,1667147,{TAB},1576,1668723,,,4,,,,,,,,,,,,3,1,05 copy.bmp,1,1,-999999,55,1233377,1,2350,1235727,#pC53Wz,p,,,,,,,RMEProc,1,3,-999999,66,1229011,3,4311,1233322,5,1,4,RMETrialList,,,,,,
RMEBPD Clinical Cog Load (2.13,2898,1,"<?xml version=""1.0""?>\n<Clock xmlns:dt=""urn:schemas-microsoft-com:datatypes""><Description dt:dt=""string"">E-Prime Primary Realtime Clock</Description><StartTime><Timestamp dt:dt=""int"">0</Timestamp><DateUtc dt:dt=""string"">2017-12-05T19:18:40Z</DateUtc></StartTime><FrequencyChanges><FrequencyChange><Frequency dt:dt=""r8"">2922978</Frequency><Timestamp dt:dt=""r8"">746266531998</Timestamp><Current dt:dt=""r8"">0</Current><DateUtc dt:dt=""string"">2017-12-05T19:18:40Z</DateUtc></FrequencyChange></FrequencyChanges></Clock>\n",RMEBPD Clinical Cog Load (2.13-2898-1,60.007,1.0.0.401,1,IC,-1057193573,Professional,2.0.10.353,2.0.10.353,12/5/2017,12/5/2017 19:18,14:18:40,2.0.10.248,3,1,2136,1667084,1,2202,1664917,?,3,1,3,1,1,-999999,85,1179766,1,3545,1183311,,,RME,0,1,-999999,16,1168134,4,11547,1179681,BlockList,0,,-999999,63,1667147,{TAB},1576,1668723,,,5,,,,,,,,,,,,2,2,06 copy.bmp,1,2,-999999,51,1246943,2,2667,1249610,n63#m1Q,G,,,,,,,RMEProc,0,2,-999999,67,1240827,4,6065,1246892,6,1,5,RMETrialList,,,,,,
RMEBPD Clinical Cog Load (2.13,2898,1,"<?xml version=""1.0""?>\n<Clock xmlns:dt=""urn:schemas-microsoft-com:datatypes""><Description dt:dt=""string"">E-Prime Primary Realtime Clock</Description><StartTime><Timestamp dt:dt=""int"">0</Timestamp><DateUtc dt:dt=""string"">2017-12-05T19:18:40Z</DateUtc></StartTime><FrequencyChanges><FrequencyChange><Frequency dt:dt=""r8"">2922978</Frequency><Timestamp dt:dt=""r8"">746266531998</Timestamp><Current dt:dt=""r8"">0</Current><DateUtc dt:dt=""string"">2017-12-05T19:18:40Z</DateUtc></FrequencyChange></FrequencyChanges></Clock>\n",RMEBPD Clinical Cog Load (2.13-2898-1,60.007,1.0.0.401,1,IC,-1057193573,Professional,2.0.10.353,2.0.10.353,12/5/2017,12/5/2017 19:18,14:18:40,2.0.10.248,3,1,2136,1667084,1,2202,1664917,?,3,1,3,1,1,-999999,85,1179766,1,3545,1183311,,,RME,0,1,-999999,16,1168134,4,11547,1179681,BlockList,0,,-999999,63,1667147,{TAB},1576,1668723,,,6,,,,,,,,,,,,2,1,27 copy.bmp,1,1,-999999,99,1260391,1,1579,1261970,86Y4n*J,Y,,,,,,,RMEProc,0,2,-999999,66,1254708,4,5584,1260292,27,1,6,RMETrialList,,,,,,
RMEBPD Clinical Cog Load (2.13,2898,1,"<?xml version=""1.0""?>\n<Clock xmlns:dt=""urn:schemas-microsoft-com:datatypes""><Description dt:dt=""string"">E-Prime Primary Realtime Clock</Description><StartTime><Timestamp dt:dt=""int"">0</Timestamp><DateUtc dt:dt=""string"">2017-12-05T19:18:40Z</DateUtc></StartTime><FrequencyChanges><FrequencyChange><Frequency dt:dt=""r8"">2922978</Frequency><Timestamp dt:dt=""r8"">746266531998</Timestamp><Current dt:dt=""r8"">0</Current><DateUtc dt:dt=""string"">2017-12-05T19:18:40Z</DateUtc></FrequencyChange></FrequencyChanges></Clock>\n",RMEBPD Clinical Cog Load (2.13-2898-1,60.007,1.0.0.401,1,IC,-1057193573,Professional,2.0.10.353,2.0.10.353,12/5/2017,12/5/2017 19:18,14:18:40,2.0.10.248,3,1,2136,1667084,1,2202,1664917,?,3,1,3,1,1,-999999,85,1179766,1,3545,1183311,,,RME,0,1,-999999,16,1168134,4,11547,1179681,BlockList,0,,-999999,63,1667147,{TAB},1576,1668723,,,7,,,,,,,,,,,,1,2,32 copy.bmp,1,2,-999999,74,1275489,2,1393,1276882,Ty34*g5,j,,,,,,,RMEProc,0,1,-999999,66,1267140,3,8275,1275415,32,1,7,RMETrialList,,,,,,
RMEBPD Clinical Cog Load (2.13,2898,1,"<?xml version=""1.0""?>\n<Clock xmlns:dt=""urn:schemas-microsoft-com:datatypes""><Description dt:dt=""string"">E-Prime Primary Realtime Clock</Description><StartTime><Timestamp dt:dt=""int"">0</Timestamp><DateUtc dt:dt=""string"">2017-12-05T19:18:40Z</DateUtc></StartTime><FrequencyChanges><FrequencyChange><Frequency dt:dt=""r8"">2922978</Frequency><Timestamp dt:dt=""r8"">746266531998</Timestamp><Current dt:dt=""r8"">0</Current><DateUtc dt:dt=""string"">2017-12-05T19:18:40Z</DateUtc></FrequencyChange></FrequencyChanges></Clock>\n",RMEBPD Clinical Cog Load (2.13-2898-1,60.007,1.0.0.401,1,IC,-1057193573,Professional,2.0.10.353,2.0.10.353,12/5/2017,12/5/2017 19:18,14:18:40,2.0.10.248,3,1,2136,1667084,1,2202,1664917,?,3,1,3,1,1,-999999,85,1179766,1,3545,1183311,,,RME,0,1,-999999,16,1168134,4,11547,1179681,BlockList,0,,-999999,63,1667147,{TAB},1576,1668723,,,8,,,,,,,,,,,,3,1,07 copy.bmp,1,1,-999999,54,1289855,1,1796,1291651,s37PX#j,7,,,,,,,RMEProc,0,3,-999999,66,1282022,1,7779,1289801,7,1,8,RMETrialList,,,,,,
RMEBPD Clinical Cog Load (2.13,2898,1,"<?xml version=""1.0""?>\n<Clock xmlns:dt=""urn:schemas-microsoft-com:datatypes""><Description dt:dt=""string"">E-Prime Primary Realtime Clock</Description><StartTime><Timestamp dt:dt=""int"">0</Timestamp><DateUtc dt:dt=""string"">2017-12-05T19:18:40Z</DateUtc></StartTime><FrequencyChanges><FrequencyChange><Frequency dt:dt=""r8"">2922978</Frequency><Timestamp dt:dt=""r8"">746266531998</Timestamp><Current dt:dt=""r8"">0</Current><DateUtc dt:dt=""string"">2017-12-05T19:18:40Z</DateUtc></FrequencyChange></FrequencyChanges></Clock>\n",RMEBPD Clinical Cog Load (2.13-2898-1,60.007,1.0.0.401,1,IC,-1057193573,Professional,2.0.10.353,2.0.10.353,12/5/2017,12/5/2017 19:18,14:18:40,2.0.10.248,3,1,2136,1667084,1,2202,1664917,?,3,1,3,1,1,-999999,85,1179766,1,3545,1183311,,,RME,0,1,-999999,16,1168134,4,11547,1179681,BlockList,0,,-999999,63,1667147,{TAB},1576,1668723,,,9,,,,,,,,,,,,4,1,25 copy.bmp,0,1,-999999,40,1300503,2,1333,1301836,G97hv*3,h,,,,,,,RMEProc,1,4,-999999,66,1296787,4,3676,1300463,25,1,9,RMETrialList,,,,,,
RMEBPD Clinical Cog Load (2.13,2898,1,"<?xml version=""1.0""?>\n<Clock xmlns:dt=""urn:schemas-microsoft-com:datatypes""><Description dt:dt=""string"">E-Prime Primary Realtime Clock</Description><StartTime><Timestamp dt:dt=""int"">0</Timestamp><DateUtc dt:dt=""string"">2017-12-05T19:18:40Z</DateUtc></StartTime><FrequencyChanges><FrequencyChange><Frequency dt:dt=""r8"">2922978</Frequency><Timestamp dt:dt=""r8"">746266531998</Timestamp><Current dt:dt=""r8"">0</Current><DateUtc dt:dt=""string"">2017-12-05T19:18:40Z</DateUtc></FrequencyChange></FrequencyChanges></Clock>\n",RMEBPD Clinical Cog Load (2.13-2898-1,60.007,1.0.0.401,1,IC,-1057193573,Professional,2.0.10.353,2.0.10.353,12/5/2017,12/5/2017 19:18,14:18:40,2.0.10.248,3,1,2136,1667084,1,2202,1664917,?,3,1,3,1,1,-999999,85,1179766,1,3545,1183311,,,RME,0,1,-999999,16,1168134,4,11547,1179681,BlockList,0,,-999999,63,1667147,{TAB},1576,1668723,,,10,,,,,,,,,,,,1,2,18 copy.bmp,1,2,-999999,132,1313802,2,1493,1315295,bF6n*q8,e,,,,,,,RMEProc,1,1,-999999,66,1307019,1,6651,1313670,18,1,10,RMETrialList,,,,,,
RMEBPD Clinical Cog Load (2.13,2898,1,"<?xml version=""1.0""?>\n<Clock xmlns:dt=""urn:schemas-microsoft-com:datatypes""><Description dt:dt=""string"">E-Prime Primary Realtime Clock</Description><StartTime><Timestamp dt:dt=""int"">0</Timestamp><DateUtc dt:dt=""string"">2017-12-05T19:18:40Z</DateUtc></StartTime><FrequencyChanges><FrequencyChange><Frequency dt:dt=""r8"">2922978</Frequency><Timestamp dt:dt=""r8"">746266531998</Timestamp><Current dt:dt=""r8"">0</Current><DateUtc dt:dt=""string"">2017-12-05T19:18:40Z</DateUtc></FrequencyChange></FrequencyChanges></Clock>\n",RMEBPD Clinical Cog Load (2.13-2898-1,60.007,1.0.0.401,1,IC,-1057193573,Professional,2.0.10.353,2.0.10.353,12/5/2017,12/5/2017 19:18,14:18:40,2.0.10.248,3,1,2136,1667084,1,2202,1664917,?,3,1,3,1,1,-999999,85,1179766,1,3545,1183311,,,RME,0,1,-999999,16,1168134,4,11547,1179681,BlockList,0,,-999999,63,1667147,{TAB},1576,1668723,,,11,,,,,,,,,,,,4,1,33 copy.bmp,1,1,-999999,133,1325334,1,1455,1326789,Hj*42w9,9,,,,,,,RMEProc,1,4,-999999,66,1320451,4,4750,1325201,33,1,11,RMETrialList,,,,,,
RMEBPD Clinical Cog Load (2.13,2898,1,"<?xml version=""1.0""?>\n<Clock xmlns:dt=""urn:schemas-microsoft-com:datatypes""><Description dt:dt=""string"">E-Prime Primary Realtime Clock</Description><StartTime><Timestamp dt:dt=""int"">0</Timestamp><DateUtc dt:dt=""string"">2017-12-05T19:18:40Z</DateUtc></StartTime><FrequencyChanges><FrequencyChange><Frequency dt:dt=""r8"">2922978</Frequency><Timestamp dt:dt=""r8"">746266531998</Timestamp><Current dt:dt=""r8"">0</Current><DateUtc dt:dt=""string"">2017-12-05T19:18:40Z</DateUtc></FrequencyChange></FrequencyChanges></Clock>\n",RMEBPD Clinical Cog Load (2.13-2898-1,60.007,1.0.0.401,1,IC,-1057193573,Professional,2.0.10.353,2.0.10.353,12/5/2017,12/5/2017 19:18,14:18:40,2.0.10.248,3,1,2136,1667084,1,2202,1664917,?,3,1,3,1,1,-999999,85,1179766,1,3545,1183311,,,RME,0,1,-999999,16,1168134,4,11547,1179681,BlockList,0,,-999999,63,1667147,{TAB},1576,1668723,,,12,,,,,,,,,,,,2,2,20 copy.bmp,1,2,-999999,33,1338983,2,1281,1340264,Ev*41x2,d,,,,,,,RMEProc,1,2,-999999,66,1331917,2,7033,1338950,20,1,12,RMETrialList,,,,,,
RMEBPD Clinical Cog Load (2.13,2898,1,"<?xml version=""1.0""?>\n<Clock xmlns:dt=""urn:schemas-microsoft-com:datatypes""><Description dt:dt=""string"">E-Prime Primary Realtime Clock</Description><StartTime><Timestamp dt:dt=""int"">0</Timestamp><DateUtc dt:dt=""string"">2017-12-05T19:18:40Z</DateUtc></StartTime><FrequencyChanges><FrequencyChange><Frequency dt:dt=""r8"">2922978</Frequency><Timestamp dt:dt=""r8"">746266531998</Timestamp><Current dt:dt=""r8"">0</Current><DateUtc dt:dt=""string"">2017-12-05T19:18:40Z</DateUtc></FrequencyChange></FrequencyChanges></Clock>\n",RMEBPD Clinical Cog Load (2.13-2898-1,60.007,1.0.0.401,1,IC,-1057193573,Professional,2.0.10.353,2.0.10.353,12/5/2017,12/5/2017 19:18,14:18:40,2.0.10.248,3,1,2136,1667084,1,2202,1664917,?,3,1,3,1,1,-999999,85,1179766,1,3545,1183311,,,RME,0,1,-999999,16,1168134,4,11547,1179681,BlockList,0,,-999999,63,1667147,{TAB},1576,1668723,,,13,,,,,,,,,,,,3,2,34 copy.bmp,1,2,-999999,38,1350115,2,1539,1351654,K#5Nt98,f,,,,,,,RMEProc,1,3,-999999,99,1345432,3,4645,1350077,34,1,13,RMETrialList,,,,,,
RMEBPD Clinical Cog Load (2.13,2898,1,"<?xml version=""1.0""?>\n<Clock xmlns:dt=""urn:schemas-microsoft-com:datatypes""><Description dt:dt=""string"">E-Prime Primary Realtime Clock</Description><StartTime><Timestamp dt:dt=""int"">0</Timestamp><DateUtc dt:dt=""string"">2017-12-05T19:18:40Z</DateUtc></StartTime><FrequencyChanges><FrequencyChange><Frequency dt:dt=""r8"">2922978</Frequency><Timestamp dt:dt=""r8"">746266531998</Timestamp><Current dt:dt=""r8"">0</Current><DateUtc dt:dt=""string"">2017-12-05T19:18:40Z</DateUtc></FrequencyChange></FrequencyChanges></Clock>\n",RMEBPD Clinical Cog Load (2.13-2898-1,60.007,1.0.0.401,1,IC,-1057193573,Professional,2.0.10.353,2.0.10.353,12/5/2017,12/5/2017 19:18,14:18:40,2.0.10.248,3,1,2136,1667084,1,2202,1664917,?,3,1,3,1,1,-999999,85,1179766,1,3545,1183311,,,RME,0,1,-999999,16,1168134,4,11547,1179681,BlockList,0,,-999999,63,1667147,{TAB},1576,1668723,,,14,,,,,,,,,,,,3,1,03 copy.bmp,1,1,-999999,48,1361864,1,2076,1363940,*y6G93w,*,,,,,,,RMEProc,0,3,-999999,66,1356764,2,5052,1361816,3,1,14,RMETrialList,,,,,,
RMEBPD Clinical Cog Load (2.13,2898,1,"<?xml version=""1.0""?>\n<Clock xmlns:dt=""urn:schemas-microsoft-com:datatypes""><Description dt:dt=""string"">E-Prime Primary Realtime Clock</Description><StartTime><Timestamp dt:dt=""int"">0</Timestamp><DateUtc dt:dt=""string"">2017-12-05T19:18:40Z</DateUtc></StartTime><FrequencyChanges><FrequencyChange><Frequency dt:dt=""r8"">2922978</Frequency><Timestamp dt:dt=""r8"">746266531998</Timestamp><Current dt:dt=""r8"">0</Current><DateUtc dt:dt=""string"">2017-12-05T19:18:40Z</DateUtc></FrequencyChange></FrequencyChanges></Clock>\n",RMEBPD Clinical Cog Load (2.13-2898-1,60.007,1.0.0.401,1,IC,-1057193573,Professional,2.0.10.353,2.0.10.353,12/5/2017,12/5/2017 19:18,14:18:40,2.0.10.248,3,1,2136,1667084,1,2202,1664917,?,3,1,3,1,1,-999999,85,1179766,1,3545,1183311,,,RME,0,1,-999999,16,1168134,4,11547,1179681,BlockList,0,,-999999,63,1667147,{TAB},1576,1668723,,,15,,,,,,,,,,,,3,1,11 copy.bmp,1,1,-999999,41,1374046,1,1120,1375166,pD8#12b,p,,,,,,,RMEProc,1,3,-999999,83,1369063,3,4942,1374005,11,1,15,RMETrialList,,,,,,
RMEBPD Clinical Cog Load (2.13,2898,1,"<?xml version=""1.0""?>\n<Clock xmlns:dt=""urn:schemas-microsoft-com:datatypes""><Description dt:dt=""string"">E-Prime Primary Realtime Clock</Description><StartTime><Timestamp dt:dt=""int"">0</Timestamp><DateUtc dt:dt=""string"">2017-12-05T19:18:40Z</DateUtc></StartTime><FrequencyChanges><FrequencyChange><Frequency dt:dt=""r8"">2922978</Frequency><Timestamp dt:dt=""r8"">746266531998</Timestamp><Current dt:dt=""r8"">0</Current><DateUtc dt:dt=""string"">2017-12-05T19:18:40Z</DateUtc></FrequencyChange></FrequencyChanges></Clock>\n",RMEBPD Clinical Cog Load (2.13-2898-1,60.007,1.0.0.401,1,IC,-1057193573,Professional,2.0.10.353,2.0.10.353,12/5/2017,12/5/2017 19:18,14:18:40,2.0.10.248,3,1,2136,1667084,1,2202,1664917,?,3,1,3,1,1,-999999,85,1179766,1,3545,1183311,,,RME,0,1,-999999,16,1168134,4,11547,1179681,BlockList,0,,-999999,63,1667147,{TAB},1576,1668723,,,16,,,,,,,,,,,,2,1,13 copy.bmp,0,1,-999999,100,1383511,2,8530,1392041,42*tg6D,t,,,,,,,RMEProc,1,2,-999999,66,1380278,2,3133,1383411,13,1,16,RMETrialList,,,,,,
RMEBPD Clinical Cog Load (2.13,2898,1,"<?xml version=""1.0""?>\n<Clock xmlns:dt=""urn:schemas-microsoft-com:datatypes""><Description dt:dt=""string"">E-Prime Primary Realtime Clock</Description><StartTime><Timestamp dt:dt=""int"">0</Timestamp><DateUtc dt:dt=""string"">2017-12-05T19:18:40Z</DateUtc></StartTime><FrequencyChanges><FrequencyChange><Frequency dt:dt=""r8"">2922978</Frequency><Timestamp dt:dt=""r8"">746266531998</Timestamp><Current dt:dt=""r8"">0</Current><DateUtc dt:dt=""string"">2017-12-05T19:18:40Z</DateUtc></FrequencyChange></FrequencyChanges></Clock>\n",RMEBPD Clinical Cog Load (2.13-2898-1,60.007,1.0.0.401,1,IC,-1057193573,Professional,2.0.10.353,2.0.10.353,12/5/2017,12/5/2017 19:18,14:18:40,2.0.10.248,3,1,2136,1667084,1,2202,1664917,?,3,1,3,1,1,-999999,85,1179766,1,3545,1183311,,,RME,0,1,-999999,16,1168134,4,11547,1179681,BlockList,0,,-999999,63,1667147,{TAB},1576,1668723,,,17,,,,,,,,,,,,1,1,15 copy.bmp,0,1,-999999,42,1402542,2,3434,1405976,Fr26Km#,r,,,,,,,RMEProc,1,1,-999999,66,1397143,1,5357,1402500,15,1,17,RMETrialList,,,,,,
RMEBPD Clinical Cog Load (2.13,2898,1,"<?xml version=""1.0""?>\n<Clock xmlns:dt=""urn:schemas-microsoft-com:datatypes""><Description dt:dt=""string"">E-Prime Primary Realtime Clock</Description><StartTime><Timestamp dt:dt=""int"">0</Timestamp><DateUtc dt:dt=""string"">2017-12-05T19:18:40Z</DateUtc></StartTime><FrequencyChanges><FrequencyChange><Frequency dt:dt=""r8"">2922978</Frequency><Timestamp dt:dt=""r8"">746266531998</Timestamp><Current dt:dt=""r8"">0</Current><DateUtc dt:dt=""string"">2017-12-05T19:18:40Z</DateUtc></FrequencyChange></FrequencyChanges></Clock>\n",RMEBPD Clinical Cog Load (2.13-2898-1,60.007,1.0.0.401,1,IC,-1057193573,Professional,2.0.10.353,2.0.10.353,12/5/2017,12/5/2017 19:18,14:18:40,2.0.10.248,3,1,2136,1667084,1,2202,1664917,?,3,1,3,1,1,-999999,85,1179766,1,3545,1183311,,,RME,0,1,-999999,16,1168134,4,11547,1179681,BlockList,0,,-999999,63,1667147,{TAB},1576,1668723,,,18,,,,,,,,,,,,2,2,02 copy.bmp,1,2,-999999,43,1415791,2,6852,1422643,G#935zq,g,,,,,,,RMEProc,1,2,-999999,66,1411075,2,4673,1415748,2,1,18,RMETrialList,,,,,,
RMEBPD Clinical Cog Load (2.13,2898,1,"<?xml version=""1.0""?>\n<Clock xmlns:dt=""urn:schemas-microsoft-com:datatypes""><Description dt:dt=""string"">E-Prime Primary Realtime Clock</Description><StartTime><Timestamp dt:dt=""int"">0</Timestamp><DateUtc dt:dt=""string"">2017-12-05T19:18:40Z</DateUtc></StartTime><FrequencyChanges><FrequencyChange><Frequency dt:dt=""r8"">2922978</Frequency><Timestamp dt:dt=""r8"">746266531998</Timestamp><Current dt:dt=""r8"">0</Current><DateUtc dt:dt=""string"">2017-12-05T19:18:40Z</DateUtc></FrequencyChange></FrequencyChanges></Clock>\n",RMEBPD Clinical Cog Load (2.13-2898-1,60.007,1.0.0.401,1,IC,-1057193573,Professional,2.0.10.353,2.0.10.353,12/5/2017,12/5/2017 19:18,14:18:40,2.0.10.248,3,1,2136,1667084,1,2202,1664917,?,3,1,3,1,1,-999999,85,1179766,1,3545,1183311,,,RME,0,1,-999999,16,1168134,4,11547,1179681,BlockList,0,,-999999,63,1667147,{TAB},1576,1668723,,,19,,,,,,,,,,,,1,2,08 copy.bmp,1,2,-999999,32,1434856,2,1261,1436117,Y9y3*w6,f,,,,,,,RMEProc,1,1,-999999,66,1427756,1,7068,1434824,8,1,19,RMETrialList,,,,,,
RMEBPD Clinical Cog Load (2.13,2898,1,"<?xml version=""1.0""?>\n<Clock xmlns:dt=""urn:schemas-microsoft-com:datatypes""><Description dt:dt=""string"">E-Prime Primary Realtime Clock</Description><StartTime><Timestamp dt:dt=""int"">0</Timestamp><DateUtc dt:dt=""string"">2017-12-05T19:18:40Z</DateUtc></StartTime><FrequencyChanges><FrequencyChange><Frequency dt:dt=""r8"">2922978</Frequency><Timestamp dt:dt=""r8"">746266531998</Timestamp><Current dt:dt=""r8"">0</Current><DateUtc dt:dt=""string"">2017-12-05T19:18:40Z</DateUtc></FrequencyChange></FrequencyChanges></Clock>\n",RMEBPD Clinical Cog Load (2.13-2898-1,60.007,1.0.0.401,1,IC,-1057193573,Professional,2.0.10.353,2.0.10.353,12/5/2017,12/5/2017 19:18,14:18:40,2.0.10.248,3,1,2136,1667084,1,2202,1664917,?,3,1,3,1,1,-999999,85,1179766,1,3545,1183311,,,RME,0,1,-999999,16,1168134,4,11547,1179681,BlockList,0,,-999999,63,1667147,{TAB},1576,1668723,,,20,,,,,,,,,,,,2,1,35 copy.bmp,0,1,-999999,41,1445255,2,1005,1446260,K62*mF3,m,,,,,,,RMEProc,1,2,-999999,66,1441222,2,3992,1445214,35,1,20,RMETrialList,,,,,,
RMEBPD Clinical Cog Load (2.13,2898,1,"<?xml version=""1.0""?>\n<Clock xmlns:dt=""urn:schemas-microsoft-com:datatypes""><Description dt:dt=""string"">E-Prime Primary Realtime Clock</Description><StartTime><Timestamp dt:dt=""int"">0</Timestamp><DateUtc dt:dt=""string"">2017-12-05T19:18:40Z</DateUtc></StartTime><FrequencyChanges><FrequencyChange><Frequency dt:dt=""r8"">2922978</Frequency><Timestamp dt:dt=""r8"">746266531998</Timestamp><Current dt:dt=""r8"">0</Current><DateUtc dt:dt=""string"">2017-12-05T19:18:40Z</DateUtc></FrequencyChange></FrequencyChanges></Clock>\n",RMEBPD Clinical Cog Load (2.13-2898-1,60.007,1.0.0.401,1,IC,-1057193573,Professional,2.0.10.353,2.0.10.353,12/5/2017,12/5/2017 19:18,14:18:40,2.0.10.248,3,1,2136,1667084,1,2202,1664917,?,3,1,3,1,1,-999999,85,1179766,1,3545,1183311,,,RME,0,1,-999999,16,1168134,4,11547,1179681,BlockList,0,,-999999,63,1667147,{TAB},1576,1668723,,,21,,,,,,,,,,,,2,1,21 copy.bmp,1,1,-999999,96,1455553,1,2044,1457597,H#6s53Q,6,,,,,,,RMEProc,1,2,-999999,66,1451354,2,4103,1455457,21,1,21,RMETrialList,,,,,,
RMEBPD Clinical Cog Load (2.13,2898,1,"<?xml version=""1.0""?>\n<Clock xmlns:dt=""urn:schemas-microsoft-com:datatypes""><Description dt:dt=""string"">E-Prime Primary Realtime Clock</Description><StartTime><Timestamp dt:dt=""int"">0</Timestamp><DateUtc dt:dt=""string"">2017-12-05T19:18:40Z</DateUtc></StartTime><FrequencyChanges><FrequencyChange><Frequency dt:dt=""r8"">2922978</Frequency><Timestamp dt:dt=""r8"">746266531998</Timestamp><Current dt:dt=""r8"">0</Current><DateUtc dt:dt=""string"">2017-12-05T19:18:40Z</DateUtc></FrequencyChange></FrequencyChanges></Clock>\n",RMEBPD Clinical Cog Load (2.13-2898-1,60.007,1.0.0.401,1,IC,-1057193573,Professional,2.0.10.353,2.0.10.353,12/5/2017,12/5/2017 19:18,14:18:40,2.0.10.248,3,1,2136,1667084,1,2202,1664917,?,3,1,3,1,1,-999999,85,1179766,1,3545,1183311,,,RME,0,1,-999999,16,1168134,4,11547,1179681,BlockList,0,,-999999,63,1667147,{TAB},1576,1668723,,,22,,,,,,,,,,,,2,2,30 copy.bmp,1,2,-999999,48,1469469,2,2145,1471614,#KQ47d3,1,,,,,,,RMEProc,1,2,-999999,66,1462753,2,6668,1469421,30,1,22,RMETrialList,,,,,,
RMEBPD Clinical Cog Load (2.13,2898,1,"<?xml version=""1.0""?>\n<Clock xmlns:dt=""urn:schemas-microsoft-com:datatypes""><Description dt:dt=""string"">E-Prime Primary Realtime Clock</Description><StartTime><Timestamp dt:dt=""int"">0</Timestamp><DateUtc dt:dt=""string"">2017-12-05T19:18:40Z</DateUtc></StartTime><FrequencyChanges><FrequencyChange><Frequency dt:dt=""r8"">2922978</Frequency><Timestamp dt:dt=""r8"">746266531998</Timestamp><Current dt:dt=""r8"">0</Current><DateUtc dt:dt=""string"">2017-12-05T19:18:40Z</DateUtc></FrequencyChange></FrequencyChanges></Clock>\n",RMEBPD Clinical Cog Load (2.13-2898-1,60.007,1.0.0.401,1,IC,-1057193573,Professional,2.0.10.353,2.0.10.353,12/5/2017,12/5/2017 19:18,14:18:40,2.0.10.248,3,1,2136,1667084,1,2202,1664917,?,3,1,3,1,1,-999999,85,1179766,1,3545,1183311,,,RME,0,1,-999999,16,1168134,4,11547,1179681,BlockList,0,,-999999,63,1667147,{TAB},1576,1668723,,,23,,,,,,,,,,,,1,1,01 copy.bmp,1,1,-999999,35,1480634,1,6251,1486885,Hj6973*,j,,,,,,,RMEProc,1,1,-999999,66,1476718,1,3881,1480599,1,1,23,RMETrialList,,,,,,
RMEBPD Clinical Cog Load (2.13,2898,1,"<?xml version=""1.0""?>\n<Clock xmlns:dt=""urn:schemas-microsoft-com:datatypes""><Description dt:dt=""string"">E-Prime Primary Realtime Clock</Description><StartTime><Timestamp dt:dt=""int"">0</Timestamp><DateUtc dt:dt=""string"">2017-12-05T19:18:40Z</DateUtc></StartTime><FrequencyChanges><FrequencyChange><Frequency dt:dt=""r8"">2922978</Frequency><Timestamp dt:dt=""r8"">746266531998</Timestamp><Current dt:dt=""r8"">0</Current><DateUtc dt:dt=""string"">2017-12-05T19:18:40Z</DateUtc></FrequencyChange></FrequencyChanges></Clock>\n",RMEBPD Clinical Cog Load (2.13-2898-1,60.007,1.0.0.401,1,IC,-1057193573,Professional,2.0.10.353,2.0.10.353,12/5/2017,12/5/2017 19:18,14:18:40,2.0.10.248,3,1,2136,1667084,1,2202,1664917,?,3,1,3,1,1,-999999,85,1179766,1,3545,1183311,,,RME,0,1,-999999,16,1168134,4,11547,1179681,BlockList,0,,-999999,63,1667147,{TAB},1576,1668723,,,24,,,,,,,,,,,,1,2,28 copy.bmp,1,2,-999999,37,1497166,2,1677,1498843,JH*tm73,N,,,,,,,RMEProc,0,1,-999999,66,1491983,4,5146,1497129,28,1,24,RMETrialList,,,,,,
RMEBPD Clinical Cog Load (2.13,2898,1,"<?xml version=""1.0""?>\n<Clock xmlns:dt=""urn:schemas-microsoft-com:datatypes""><Description dt:dt=""string"">E-Prime Primary Realtime Clock</Description><StartTime><Timestamp dt:dt=""int"">0</Timestamp><DateUtc dt:dt=""string"">2017-12-05T19:18:40Z</DateUtc></StartTime><FrequencyChanges><FrequencyChange><Frequency dt:dt=""r8"">2922978</Frequency><Timestamp dt:dt=""r8"">746266531998</Timestamp><Current dt:dt=""r8"">0</Current><DateUtc dt:dt=""string"">2017-12-05T19:18:40Z</DateUtc></FrequencyChange></FrequencyChanges></Clock>\n",RMEBPD Clinical Cog Load (2.13-2898-1,60.007,1.0.0.401,1,IC,-1057193573,Professional,2.0.10.353,2.0.10.353,12/5/2017,12/5/2017 19:18,14:18:40,2.0.10.248,3,1,2136,1667084,1,2202,1664917,?,3,1,3,1,1,-999999,85,1179766,1,3545,1183311,,,RME,0,1,-999999,16,1168134,4,11547,1179681,BlockList,0,,-999999,63,1667147,{TAB},1576,1668723,,,25,,,,,,,,,,,,1,1,17 copy.bmp,1,1,-999999,36,1511581,1,2812,1514393,38qJ#rQ,q,,,,,,,RMEProc,0,1,-999999,66,1503948,4,7597,1511545,17,1,25,RMETrialList,,,,,,
RMEBPD Clinical Cog Load (2.13,2898,1,"<?xml version=""1.0""?>\n<Clock xmlns:dt=""urn:schemas-microsoft-com:datatypes""><Description dt:dt=""string"">E-Prime Primary Realtime Clock</Description><StartTime><Timestamp dt:dt=""int"">0</Timestamp><DateUtc dt:dt=""string"">2017-12-05T19:18:40Z</DateUtc></StartTime><FrequencyChanges><FrequencyChange><Frequency dt:dt=""r8"">2922978</Frequency><Timestamp dt:dt=""r8"">746266531998</Timestamp><Current dt:dt=""r8"">0</Current><DateUtc dt:dt=""string"">2017-12-05T19:18:40Z</DateUtc></FrequencyChange></FrequencyChanges></Clock>\n",RMEBPD Clinical Cog Load (2.13-2898-1,60.007,1.0.0.401,1,IC,-1057193573,Professional,2.0.10.353,2.0.10.353,12/5/2017,12/5/2017 19:18,14:18:40,2.0.10.248,3,1,2136,1667084,1,2202,1664917,?,3,1,3,1,1,-999999,85,1179766,1,3545,1183311,,,RME,0,1,-999999,16,1168134,4,11547,1179681,BlockList,0,,-999999,63,1667147,{TAB},1576,1668723,,,26,,,,,,,,,,,,4,1,09 copy.bmp,1,1,-999999,30,1524079,1,2100,1526179,85tn3#1d,#,,,,,,,RMEProc,0,4,-999999,67,1519497,1,4552,1524049,9,1,26,RMETrialList,,,,,,
RMEBPD Clinical Cog Load (2.13,2898,1,"<?xml version=""1.0""?>\n<Clock xmlns:dt=""urn:schemas-microsoft-com:datatypes""><Description dt:dt=""string"">E-Prime Primary Realtime Clock</Description><StartTime><Timestamp dt:dt=""int"">0</Timestamp><DateUtc dt:dt=""string"">2017-12-05T19:18:40Z</DateUtc></StartTime><FrequencyChanges><FrequencyChange><Frequency dt:dt=""r8"">2922978</Frequency><Timestamp dt:dt=""r8"">746266531998</Timestamp><Current dt:dt=""r8"">0</Current><DateUtc dt:dt=""string"">2017-12-05T19:18:40Z</DateUtc></FrequencyChange></FrequencyChanges></Clock>\n",RMEBPD Clinical Cog Load (2.13-2898-1,60.007,1.0.0.401,1,IC,-1057193573,Professional,2.0.10.353,2.0.10.353,12/5/2017,12/5/2017 19:18,14:18:40,2.0.10.248,3,1,2136,1667084,1,2202,1664917,?,3,1,3,1,1,-999999,85,1179766,1,3545,1183311,,,RME,0,1,-999999,16,1168134,4,11547,1179681,BlockList,0,,-999999,63,1667147,{TAB},1576,1668723,,,27,,,,,,,,,,,,2,2,04 copy.bmp,1,2,-999999,27,1538345,2,2562,1540907,89F5*qp,6,,,,,,,RMEProc,1,2,-999999,66,1531329,2,6989,1538318,4,1,27,RMETrialList,,,,,,
RMEBPD Clinical Cog Load (2.13,2898,1,"<?xml version=""1.0""?>\n<Clock xmlns:dt=""urn:schemas-microsoft-com:datatypes""><Description dt:dt=""string"">E-Prime Primary Realtime Clock</Description><StartTime><Timestamp dt:dt=""int"">0</Timestamp><DateUtc dt:dt=""string"">2017-12-05T19:18:40Z</DateUtc></StartTime><FrequencyChanges><FrequencyChange><Frequency dt:dt=""r8"">2922978</Frequency><Timestamp dt:dt=""r8"">746266531998</Timestamp><Current dt:dt=""r8"">0</Current><DateUtc dt:dt=""string"">2017-12-05T19:18:40Z</DateUtc></FrequencyChange></FrequencyChanges></Clock>\n",RMEBPD Clinical Cog Load (2.13-2898-1,60.007,1.0.0.401,1,IC,-1057193573,Professional,2.0.10.353,2.0.10.353,12/5/2017,12/5/2017 19:18,14:18:40,2.0.10.248,3,1,2136,1667084,1,2202,1664917,?,3,1,3,1,1,-999999,85,1179766,1,3545,1183311,,,RME,0,1,-999999,16,1168134,4,11547,1179681,BlockList,0,,-999999,63,1667147,{TAB},1576,1668723,,,28,,,,,,,,,,,,4,1,19 copy.bmp,1,1,-999999,38,1550610,1,2981,1553591,v5GH79*,5,,,,,,,RMEProc,0,4,-999999,66,1546010,2,4562,1550572,19,1,28,RMETrialList,,,,,,
RMEBPD Clinical Cog Load (2.13,2898,1,"<?xml version=""1.0""?>\n<Clock xmlns:dt=""urn:schemas-microsoft-com:datatypes""><Description dt:dt=""string"">E-Prime Primary Realtime Clock</Description><StartTime><Timestamp dt:dt=""int"">0</Timestamp><DateUtc dt:dt=""string"">2017-12-05T19:18:40Z</DateUtc></StartTime><FrequencyChanges><FrequencyChange><Frequency dt:dt=""r8"">2922978</Frequency><Timestamp dt:dt=""r8"">746266531998</Timestamp><Current dt:dt=""r8"">0</Current><DateUtc dt:dt=""string"">2017-12-05T19:18:40Z</DateUtc></FrequencyChange></FrequencyChanges></Clock>\n",RMEBPD Clinical Cog Load (2.13-2898-1,60.007,1.0.0.401,1,IC,-1057193573,Professional,2.0.10.353,2.0.10.353,12/5/2017,12/5/2017 19:18,14:18:40,2.0.10.248,3,1,2136,1667084,1,2202,1664917,?,3,1,3,1,1,-999999,85,1179766,1,3545,1183311,,,RME,0,1,-999999,16,1168134,4,11547,1179681,BlockList,0,,-999999,63,1667147,{TAB},1576,1668723,,,29,,,,,,,,,,,,2,2,16 copy.bmp,1,2,-999999,42,1567825,2,2088,1569913,U*9gq51,Q,,,,,,,RMEProc,0,2,-999999,66,1558692,4,9091,1567783,16,1,29,RMETrialList,,,,,,
RMEBPD Clinical Cog Load (2.13,2898,1,"<?xml version=""1.0""?>\n<Clock xmlns:dt=""urn:schemas-microsoft-com:datatypes""><Description dt:dt=""string"">E-Prime Primary Realtime Clock</Description><StartTime><Timestamp dt:dt=""int"">0</Timestamp><DateUtc dt:dt=""string"">2017-12-05T19:18:40Z</DateUtc></StartTime><FrequencyChanges><FrequencyChange><Frequency dt:dt=""r8"">2922978</Frequency><Timestamp dt:dt=""r8"">746266531998</Timestamp><Current dt:dt=""r8"">0</Current><DateUtc dt:dt=""string"">2017-12-05T19:18:40Z</DateUtc></FrequencyChange></FrequencyChanges></Clock>\n",RMEBPD Clinical Cog Load (2.13-2898-1,60.007,1.0.0.401,1,IC,-1057193573,Professional,2.0.10.353,2.0.10.353,12/5/2017,12/5/2017 19:18,14:18:40,2.0.10.248,3,1,2136,1667084,1,2202,1664917,?,3,1,3,1,1,-999999,85,1179766,1,3545,1183311,,,RME,0,1,-999999,16,1168134,4,11547,1179681,BlockList,0,,-999999,63,1667147,{TAB},1576,1668723,,,30,,,,,,,,,,,,4,1,29 copy.bmp,1,1,-999999,34,1578290,1,1404,1579694,Kq#694b,4,,,,,,,RMEProc,0,4,-999999,66,1575007,1,3249,1578256,29,1,30,RMETrialList,,,,,,
RMEBPD Clinical Cog Load (2.13,2898,1,"<?xml version=""1.0""?>\n<Clock xmlns:dt=""urn:schemas-microsoft-com:datatypes""><Description dt:dt=""string"">E-Prime Primary Realtime Clock</Description><StartTime><Timestamp dt:dt=""int"">0</Timestamp><DateUtc dt:dt=""string"">2017-12-05T19:18:40Z</DateUtc></StartTime><FrequencyChanges><FrequencyChange><Frequency dt:dt=""r8"">2922978</Frequency><Timestamp dt:dt=""r8"">746266531998</Timestamp><Current dt:dt=""r8"">0</Current><DateUtc dt:dt=""string"">2017-12-05T19:18:40Z</DateUtc></FrequencyChange></FrequencyChanges></Clock>\n",RMEBPD Clinical Cog Load (2.13-2898-1,60.007,1.0.0.401,1,IC,-1057193573,Professional,2.0.10.353,2.0.10.353,12/5/2017,12/5/2017 19:18,14:18:40,2.0.10.248,3,1,2136,1667084,1,2202,1664917,?,3,1,3,1,1,-999999,85,1179766,1,3545,1183311,,,RME,0,1,-999999,16,1168134,4,11547,1179681,BlockList,0,,-999999,63,1667147,{TAB},1576,1668723,,,31,,,,,,,,,,,,3,2,36 copy.bmp,1,2,-999999,29,1590122,2,1319,1591441,*9x54tF,^,,,,,,,RMEProc,1,3,-999999,66,1584806,3,5287,1590093,36,1,31,RMETrialList,,,,,,
RMEBPD Clinical Cog Load (2.13,2898,1,"<?xml version=""1.0""?>\n<Clock xmlns:dt=""urn:schemas-microsoft-com:datatypes""><Description dt:dt=""string"">E-Prime Primary Realtime Clock</Description><StartTime><Timestamp dt:dt=""int"">0</Timestamp><DateUtc dt:dt=""string"">2017-12-05T19:18:40Z</DateUtc></StartTime><FrequencyChanges><FrequencyChange><Frequency dt:dt=""r8"">2922978</Frequency><Timestamp dt:dt=""r8"">746266531998</Timestamp><Current dt:dt=""r8"">0</Current><DateUtc dt:dt=""string"">2017-12-05T19:18:40Z</DateUtc></FrequencyChange></FrequencyChanges></Clock>\n",RMEBPD Clinical Cog Load (2.13-2898-1,60.007,1.0.0.401,1,IC,-1057193573,Professional,2.0.10.353,2.0.10.353,12/5/2017,12/5/2017 19:18,14:18:40,2.0.10.248,3,1,2136,1667084,1,2202,1664917,?,3,1,3,1,1,-999999,85,1179766,1,3545,1183311,,,RME,0,1,-999999,16,1168134,4,11547,1179681,BlockList,0,,-999999,63,1667147,{TAB},1576,1668723,,,32,,,,,,,,,,,,1,2,24 copy.bmp,1,2,-999999,112,1600521,2,2866,1603387,*9Xha64,5,,,,,,,RMEProc,1,1,-999999,100,1596572,1,3837,1600409,24,1,32,RMETrialList,,,,,,
RMEBPD Clinical Cog Load (2.13,2898,1,"<?xml version=""1.0""?>\n<Clock xmlns:dt=""urn:schemas-microsoft-com:datatypes""><Description dt:dt=""string"">E-Prime Primary Realtime Clock</Description><StartTime><Timestamp dt:dt=""int"">0</Timestamp><DateUtc dt:dt=""string"">2017-12-05T19:18:40Z</DateUtc></StartTime><FrequencyChanges><FrequencyChange><Frequency dt:dt=""r8"">2922978</Frequency><Timestamp dt:dt=""r8"">746266531998</Timestamp><Current dt:dt=""r8"">0</Current><DateUtc dt:dt=""string"">2017-12-05T19:18:40Z</DateUtc></FrequencyChange></FrequencyChanges></Clock>\n",RMEBPD Clinical Cog Load (2.13-2898-1,60.007,1.0.0.401,1,IC,-1057193573,Professional,2.0.10.353,2.0.10.353,12/5/2017,12/5/2017 19:18,14:18:40,2.0.10.248,3,1,2136,1667084,1,2202,1664917,?,3,1,3,1,1,-999999,85,1179766,1,3545,1183311,,,RME,0,1,-999999,16,1168134,4,11547,1179681,BlockList,0,,-999999,63,1667147,{TAB},1576,1668723,,,33,,,,,,,,,,,,1,2,10 copy.bmp,1,2,-999999,51,1614170,2,2030,1616200,XgQ74*m,#,,,,,,,RMEProc,1,1,-999999,66,1608504,1,5615,1614119,10,1,33,RMETrialList,,,,,,
RMEBPD Clinical Cog Load (2.13,2898,1,"<?xml version=""1.0""?>\n<Clock xmlns:dt=""urn:schemas-microsoft-com:datatypes""><Description dt:dt=""string"">E-Prime Primary Realtime Clock</Description><StartTime><Timestamp dt:dt=""int"">0</Timestamp><DateUtc dt:dt=""string"">2017-12-05T19:18:40Z</DateUtc></StartTime><FrequencyChanges><FrequencyChange><Frequency dt:dt=""r8"">2922978</Frequency><Timestamp dt:dt=""r8"">746266531998</Timestamp><Current dt:dt=""r8"">0</Current><DateUtc dt:dt=""string"">2017-12-05T19:18:40Z</DateUtc></FrequencyChange></FrequencyChanges></Clock>\n",RMEBPD Clinical Cog Load (2.13-2898-1,60.007,1.0.0.401,1,IC,-1057193573,Professional,2.0.10.353,2.0.10.353,12/5/2017,12/5/2017 19:18,14:18:40,2.0.10.248,3,1,2136,1667084,1,2202,1664917,?,3,1,3,1,1,-999999,85,1179766,1,3545,1183311,,,RME,0,1,-999999,16,1168134,4,11547,1179681,BlockList,0,,-999999,63,1667147,{TAB},1576,1668723,,,34,,,,,,,,,,,,3,1,23 copy.bmp,1,1,-999999,70,1627552,1,1798,1629350,bQ58*tY,*,,,,,,,RMEProc,1,3,-999999,66,1621302,3,6180,1627482,23,1,34,RMETrialList,,,,,,
RMEBPD Clinical Cog Load (2.13,2898,1,"<?xml version=""1.0""?>\n<Clock xmlns:dt=""urn:schemas-microsoft-com:datatypes""><Description dt:dt=""string"">E-Prime Primary Realtime Clock</Description><StartTime><Timestamp dt:dt=""int"">0</Timestamp><DateUtc dt:dt=""string"">2017-12-05T19:18:40Z</DateUtc></StartTime><FrequencyChanges><FrequencyChange><Frequency dt:dt=""r8"">2922978</Frequency><Timestamp dt:dt=""r8"">746266531998</Timestamp><Current dt:dt=""r8"">0</Current><DateUtc dt:dt=""string"">2017-12-05T19:18:40Z</DateUtc></FrequencyChange></FrequencyChanges></Clock>\n",RMEBPD Clinical Cog Load (2.13-2898-1,60.007,1.0.0.401,1,IC,-1057193573,Professional,2.0.10.353,2.0.10.353,12/5/2017,12/5/2017 19:18,14:18:40,2.0.10.248,3,1,2136,1667084,1,2202,1664917,?,3,1,3,1,1,-999999,85,1179766,1,3545,1183311,,,RME,0,1,-999999,16,1168134,4,11547,1179681,BlockList,0,,-999999,63,1667147,{TAB},1576,1668723,,,35,,,,,,,,,,,,4,2,14 copy.bmp,1,2,-999999,19,1641550,2,1015,1642565,Ex7J2b#,V,,,,,,,RMEProc,1,4,-999999,67,1634468,4,7063,1641531,14,1,35,RMETrialList,,,,,,
RMEBPD Clinical Cog Load (2.13,2898,1,"<?xml version=""1.0""?>\n<Clock xmlns:dt=""urn:schemas-microsoft-com:datatypes""><Description dt:dt=""string"">E-Prime Primary Realtime Clock</Description><StartTime><Timestamp dt:dt=""int"">0</Timestamp><DateUtc dt:dt=""string"">2017-12-05T19:18:40Z</DateUtc></StartTime><FrequencyChanges><FrequencyChange><Frequency dt:dt=""r8"">2922978</Frequency><Timestamp dt:dt=""r8"">746266531998</Timestamp><Current dt:dt=""r8"">0</Current><DateUtc dt:dt=""string"">2017-12-05T19:18:40Z</DateUtc></FrequencyChange></FrequencyChanges></Clock>\n",RMEBPD Clinical Cog Load (2.13-2898-1,60.007,1.0.0.401,1,IC,-1057193573,Professional,2.0.10.353,2.0.10.353,12/5/2017,12/5/2017 19:18,14:18:40,2.0.10.248,3,1,2136,1667084,1,2202,1664917,?,3,1,3,1,1,-999999,85,1179766,1,3545,1183311,,,RME,0,1,-999999,16,1168134,4,11547,1179681,BlockList,0,,-999999,63,1667147,{TAB},1576,1668723,,,36,,,,,,,,,,,,3,2,12 copy.bmp,1,2,-999999,28,1657148,2,5532,1662680,K#zr5N6,2,,,,,,,RMEProc,1,3,-999999,66,1647666,3,9454,1657120,12,1,36,RMETrialList,,,,,,
RMEBPD Clinical Cog Load (2.13,2898,1,"<?xml version=""1.0""?>\n<Clock xmlns:dt=""urn:schemas-microsoft-com:datatypes""><Description dt:dt=""string"">E-Prime Primary Realtime Clock</Description><StartTime><Timestamp dt:dt=""int"">0</Timestamp><DateUtc dt:dt=""string"">2017-12-05T19:18:40Z</DateUtc></StartTime><FrequencyChanges><FrequencyChange><Frequency dt:dt=""r8"">2922978</Frequency><Timestamp dt:dt=""r8"">746266531998</Timestamp><Current dt:dt=""r8"">0</Current><DateUtc dt:dt=""string"">2017-12-05T19:18:40Z</DateUtc></FrequencyChange></FrequencyChanges></Clock>\n",RMEBPD Clinical Cog Load (2.13-2898-1,60.007,1.0.0.401,1,IC,-1057193573,Professional,2.0.10.353,2.0.10.353,12/5/2017,12/5/2017 19:18,14:18:40,2.0.10.248,4,,,,,,,?,4,1,4,,,,,,,,,1236,1670000,PANAS,,,,,,,,,BlockList,,,,,,,,,,,1,,,,,,,,,,,,,,PANAS01.bmp,,,,,,,,,,,1,2,23,2,11151,1681215,PANASProc,,,,,,,,,,,,PANASQuestions,,,,,,
RMEBPD Clinical Cog Load (2.13,2898,1,"<?xml version=""1.0""?>\n<Clock xmlns:dt=""urn:schemas-microsoft-com:datatypes""><Description dt:dt=""string"">E-Prime Primary Realtime Clock</Description><StartTime><Timestamp dt:dt=""int"">0</Timestamp><DateUtc dt:dt=""string"">2017-12-05T19:18:40Z</DateUtc></StartTime><FrequencyChanges><FrequencyChange><Frequency dt:dt=""r8"">2922978</Frequency><Timestamp dt:dt=""r8"">746266531998</Timestamp><Current dt:dt=""r8"">0</Current><DateUtc dt:dt=""string"">2017-12-05T19:18:40Z</DateUtc></FrequencyChange></FrequencyChanges></Clock>\n",RMEBPD Clinical Cog Load (2.13-2898-1,60.007,1.0.0.401,1,IC,-1057193573,Professional,2.0.10.353,2.0.10.353,12/5/2017,12/5/2017 19:18,14:18:40,2.0.10.248,4,,,,,,,?,4,1,4,,,,,,,,,1236,1670000,PANAS,,,,,,,,,BlockList,,,,,,,,,,,2,,,,,,,,,,,,,,PANAS02.bmp,,,,,,,,,,,2,2,24,4,4425,1685671,PANASProc,,,,,,,,,,,,PANASQuestions,,,,,,
RMEBPD Clinical Cog Load (2.13,2898,1,"<?xml version=""1.0""?>\n<Clock xmlns:dt=""urn:schemas-microsoft-com:datatypes""><Description dt:dt=""string"">E-Prime Primary Realtime Clock</Description><StartTime><Timestamp dt:dt=""int"">0</Timestamp><DateUtc dt:dt=""string"">2017-12-05T19:18:40Z</DateUtc></StartTime><FrequencyChanges><FrequencyChange><Frequency dt:dt=""r8"">2922978</Frequency><Timestamp dt:dt=""r8"">746266531998</Timestamp><Current dt:dt=""r8"">0</Current><DateUtc dt:dt=""string"">2017-12-05T19:18:40Z</DateUtc></FrequencyChange></FrequencyChanges></Clock>\n",RMEBPD Clinical Cog Load (2.13-2898-1,60.007,1.0.0.401,1,IC,-1057193573,Professional,2.0.10.353,2.0.10.353,12/5/2017,12/5/2017 19:18,14:18:40,2.0.10.248,4,,,,,,,?,4,1,4,,,,,,,,,1236,1670000,PANAS,,,,,,,,,BlockList,,,,,,,,,,,3,,,,,,,,,,,,,,PANAS03.bmp,,,,,,,,,,,3,2,25,1,2664,1688393,PANASProc,,,,,,,,,,,,PANASQuestions,,,,,,
RMEBPD Clinical Cog Load (2.13,2898,1,"<?xml version=""1.0""?>\n<Clock xmlns:dt=""urn:schemas-microsoft-com:datatypes""><Description dt:dt=""string"">E-Prime Primary Realtime Clock</Description><StartTime><Timestamp dt:dt=""int"">0</Timestamp><DateUtc dt:dt=""string"">2017-12-05T19:18:40Z</DateUtc></StartTime><FrequencyChanges><FrequencyChange><Frequency dt:dt=""r8"">2922978</Frequency><Timestamp dt:dt=""r8"">746266531998</Timestamp><Current dt:dt=""r8"">0</Current><DateUtc dt:dt=""string"">2017-12-05T19:18:40Z</DateUtc></FrequencyChange></FrequencyChanges></Clock>\n",RMEBPD Clinical Cog Load (2.13-2898-1,60.007,1.0.0.401,1,IC,-1057193573,Professional,2.0.10.353,2.0.10.353,12/5/2017,12/5/2017 19:18,14:18:40,2.0.10.248,4,,,,,,,?,4,1,4,,,,,,,,,1236,1670000,PANAS,,,,,,,,,BlockList,,,,,,,,,,,4,,,,,,,,,,,,,,PANAS04.bmp,,,,,,,,,,,4,2,26,3,1896,1690424,PANASProc,,,,,,,,,,,,PANASQuestions,,,,,,
RMEBPD Clinical Cog Load (2.13,2898,1,"<?xml version=""1.0""?>\n<Clock xmlns:dt=""urn:schemas-microsoft-com:datatypes""><Description dt:dt=""string"">E-Prime Primary Realtime Clock</Description><StartTime><Timestamp dt:dt=""int"">0</Timestamp><DateUtc dt:dt=""string"">2017-12-05T19:18:40Z</DateUtc></StartTime><FrequencyChanges><FrequencyChange><Frequency dt:dt=""r8"">2922978</Frequency><Timestamp dt:dt=""r8"">746266531998</Timestamp><Current dt:dt=""r8"">0</Current><DateUtc dt:dt=""string"">2017-12-05T19:18:40Z</DateUtc></FrequencyChange></FrequencyChanges></Clock>\n",RMEBPD Clinical Cog Load (2.13-2898-1,60.007,1.0.0.401,1,IC,-1057193573,Professional,2.0.10.353,2.0.10.353,12/5/2017,12/5/2017 19:18,14:18:40,2.0.10.248,4,,,,,,,?,4,1,4,,,,,,,,,1236,1670000,PANAS,,,,,,,,,BlockList,,,,,,,,,,,5,,,,,,,,,,,,,,PANAS05.bmp,,,,,,,,,,,5,2,27,1,1295,1691807,PANASProc,,,,,,,,,,,,PANASQuestions,,,,,,
RMEBPD Clinical Cog Load (2.13,2898,1,"<?xml version=""1.0""?>\n<Clock xmlns:dt=""urn:schemas-microsoft-com:datatypes""><Description dt:dt=""string"">E-Prime Primary Realtime Clock</Description><StartTime><Timestamp dt:dt=""int"">0</Timestamp><DateUtc dt:dt=""string"">2017-12-05T19:18:40Z</DateUtc></StartTime><FrequencyChanges><FrequencyChange><Frequency dt:dt=""r8"">2922978</Frequency><Timestamp dt:dt=""r8"">746266531998</Timestamp><Current dt:dt=""r8"">0</Current><DateUtc dt:dt=""string"">2017-12-05T19:18:40Z</DateUtc></FrequencyChange></FrequencyChanges></Clock>\n",RMEBPD Clinical Cog Load (2.13-2898-1,60.007,1.0.0.401,1,IC,-1057193573,Professional,2.0.10.353,2.0.10.353,12/5/2017,12/5/2017 19:18,14:18:40,2.0.10.248,4,,,,,,,?,4,1,4,,,,,,,,,1236,1670000,PANAS,,,,,,,,,BlockList,,,,,,,,,,,6,,,,,,,,,,,,,,PANAS06.bmp,,,,,,,,,,,6,2,28,5,1223,1693101,PANASProc,,,,,,,,,,,,PANASQuestions,,,,,,
RMEBPD Clinical Cog Load (2.13,2898,1,"<?xml version=""1.0""?>\n<Clock xmlns:dt=""urn:schemas-microsoft-com:datatypes""><Description dt:dt=""string"">E-Prime Primary Realtime Clock</Description><StartTime><Timestamp dt:dt=""int"">0</Timestamp><DateUtc dt:dt=""string"">2017-12-05T19:18:40Z</DateUtc></StartTime><FrequencyChanges><FrequencyChange><Frequency dt:dt=""r8"">2922978</Frequency><Timestamp dt:dt=""r8"">746266531998</Timestamp><Current dt:dt=""r8"">0</Current><DateUtc dt:dt=""string"">2017-12-05T19:18:40Z</DateUtc></FrequencyChange></FrequencyChanges></Clock>\n",RMEBPD Clinical Cog Load (2.13-2898-1,60.007,1.0.0.401,1,IC,-1057193573,Professional,2.0.10.353,2.0.10.353,12/5/2017,12/5/2017 19:18,14:18:40,2.0.10.248,4,,,,,,,?,4,1,4,,,,,,,,,1236,1670000,PANAS,,,,,,,,,BlockList,,,,,,,,,,,7,,,,,,,,,,,,,,PANAS07.bmp,,,,,,,,,,,7,2,29,1,924,1694169,PANASProc,,,,,,,,,,,,PANASQuestions,,,,,,
RMEBPD Clinical Cog Load (2.13,2898,1,"<?xml version=""1.0""?>\n<Clock xmlns:dt=""urn:schemas-microsoft-com:datatypes""><Description dt:dt=""string"">E-Prime Primary Realtime Clock</Description><StartTime><Timestamp dt:dt=""int"">0</Timestamp><DateUtc dt:dt=""string"">2017-12-05T19:18:40Z</DateUtc></StartTime><FrequencyChanges><FrequencyChange><Frequency dt:dt=""r8"">2922978</Frequency><Timestamp dt:dt=""r8"">746266531998</Timestamp><Current dt:dt=""r8"">0</Current><DateUtc dt:dt=""string"">2017-12-05T19:18:40Z</DateUtc></FrequencyChange></FrequencyChanges></Clock>\n",RMEBPD Clinical Cog Load (2.13-2898-1,60.007,1.0.0.401,1,IC,-1057193573,Professional,2.0.10.353,2.0.10.353,12/5/2017,12/5/2017 19:18,14:18:40,2.0.10.248,4,,,,,,,?,4,1,4,,,,,,,,,1236,1670000,PANAS,,,,,,,,,BlockList,,,,,,,,,,,8,,,,,,,,,,,,,,PANAS08.bmp,,,,,,,,,,,8,2,30,4,1760,1696005,PANASProc,,,,,,,,,,,,PANASQuestions,,,,,,
RMEBPD Clinical Cog Load (2.13,2898,1,"<?xml version=""1.0""?>\n<Clock xmlns:dt=""urn:schemas-microsoft-com:datatypes""><Description dt:dt=""string"">E-Prime Primary Realtime Clock</Description><StartTime><Timestamp dt:dt=""int"">0</Timestamp><DateUtc dt:dt=""string"">2017-12-05T19:18:40Z</DateUtc></StartTime><FrequencyChanges><FrequencyChange><Frequency dt:dt=""r8"">2922978</Frequency><Timestamp dt:dt=""r8"">746266531998</Timestamp><Current dt:dt=""r8"">0</Current><DateUtc dt:dt=""string"">2017-12-05T19:18:40Z</DateUtc></FrequencyChange></FrequencyChanges></Clock>\n",RMEBPD Clinical Cog Load (2.13-2898-1,60.007,1.0.0.401,1,IC,-1057193573,Professional,2.0.10.353,2.0.10.353,12/5/2017,12/5/2017 19:18,14:18:40,2.0.10.248,4,,,,,,,?,4,1,4,,,,,,,,,1236,1670000,PANAS,,,,,,,,,BlockList,,,,,,,,,,,9,,,,,,,,,,,,,,PANAS09.bmp,,,,,,,,,,,9,2,31,4,2130,1698291,PANASProc,,,,,,,,,,,,PANASQuestions,,,,,,
RMEBPD Clinical Cog Load (2.13,2898,1,"<?xml version=""1.0""?>\n<Clock xmlns:dt=""urn:schemas-microsoft-com:datatypes""><Description dt:dt=""string"">E-Prime Primary Realtime Clock</Description><StartTime><Timestamp dt:dt=""int"">0</Timestamp><DateUtc dt:dt=""string"">2017-12-05T19:18:40Z</DateUtc></StartTime><FrequencyChanges><FrequencyChange><Frequency dt:dt=""r8"">2922978</Frequency><Timestamp dt:dt=""r8"">746266531998</Timestamp><Current dt:dt=""r8"">0</Current><DateUtc dt:dt=""string"">2017-12-05T19:18:40Z</DateUtc></FrequencyChange></FrequencyChanges></Clock>\n",RMEBPD Clinical Cog Load (2.13-2898-1,60.007,1.0.0.401,1,IC,-1057193573,Professional,2.0.10.353,2.0.10.353,12/5/2017,12/5/2017 19:18,14:18:40,2.0.10.248,4,,,,,,,?,4,1,4,,,,,,,,,1236,1670000,PANAS,,,,,,,,,BlockList,,,,,,,,,,,10,,,,,,,,,,,,,,PANAS10.bmp,,,,,,,,,,,10,2,32,1,1063,1699424,PANASProc,,,,,,,,,,,,PANASQuestions,,,,,,
RMEBPD Clinical Cog Load (2.13,2898,1,"<?xml version=""1.0""?>\n<Clock xmlns:dt=""urn:schemas-microsoft-com:datatypes""><Description dt:dt=""string"">E-Prime Primary Realtime Clock</Description><StartTime><Timestamp dt:dt=""int"">0</Timestamp><DateUtc dt:dt=""string"">2017-12-05T19:18:40Z</DateUtc></StartTime><FrequencyChanges><FrequencyChange><Frequency dt:dt=""r8"">2922978</Frequency><Timestamp dt:dt=""r8"">746266531998</Timestamp><Current dt:dt=""r8"">0</Current><DateUtc dt:dt=""string"">2017-12-05T19:18:40Z</DateUtc></FrequencyChange></FrequencyChanges></Clock>\n",RMEBPD Clinical Cog Load (2.13-2898-1,60.007,1.0.0.401,1,IC,-1057193573,Professional,2.0.10.353,2.0.10.353,12/5/2017,12/5/2017 19:18,14:18:40,2.0.10.248,4,,,,,,,?,4,1,4,,,,,,,,,1236,1670000,PANAS,,,,,,,,,BlockList,,,,,,,,,,,11,,,,,,,,,,,,,,PANAS11.bmp,,,,,,,,,,,11,2,33,1,749,1700226,PANASProc,,,,,,,,,,,,PANASQuestions,,,,,,
RMEBPD Clinical Cog Load (2.13,2898,1,"<?xml version=""1.0""?>\n<Clock xmlns:dt=""urn:schemas-microsoft-com:datatypes""><Description dt:dt=""string"">E-Prime Primary Realtime Clock</Description><StartTime><Timestamp dt:dt=""int"">0</Timestamp><DateUtc dt:dt=""string"">2017-12-05T19:18:40Z</DateUtc></StartTime><FrequencyChanges><FrequencyChange><Frequency dt:dt=""r8"">2922978</Frequency><Timestamp dt:dt=""r8"">746266531998</Timestamp><Current dt:dt=""r8"">0</Current><DateUtc dt:dt=""string"">2017-12-05T19:18:40Z</DateUtc></FrequencyChange></FrequencyChanges></Clock>\n",RMEBPD Clinical Cog Load (2.13-2898-1,60.007,1.0.0.401,1,IC,-1057193573,Professional,2.0.10.353,2.0.10.353,12/5/2017,12/5/2017 19:18,14:18:40,2.0.10.248,4,,,,,,,?,4,1,4,,,,,,,,,1236,1670000,PANAS,,,,,,,,,BlockList,,,,,,,,,,,12,,,,,,,,,,,,,,PANAS12.bmp,,,,,,,,,,,12,2,34,1,2395,1702689,PANASProc,,,,,,,,,,,,PANASQuestions,,,,,,
RMEBPD Clinical Cog Load (2.13,2898,1,"<?xml version=""1.0""?>\n<Clock xmlns:dt=""urn:schemas-microsoft-com:datatypes""><Description dt:dt=""string"">E-Prime Primary Realtime Clock</Description><StartTime><Timestamp dt:dt=""int"">0</Timestamp><DateUtc dt:dt=""string"">2017-12-05T19:18:40Z</DateUtc></StartTime><FrequencyChanges><FrequencyChange><Frequency dt:dt=""r8"">2922978</Frequency><Timestamp dt:dt=""r8"">746266531998</Timestamp><Current dt:dt=""r8"">0</Current><DateUtc dt:dt=""string"">2017-12-05T19:18:40Z</DateUtc></FrequencyChange></FrequencyChanges></Clock>\n",RMEBPD Clinical Cog Load (2.13-2898-1,60.007,1.0.0.401,1,IC,-1057193573,Professional,2.0.10.353,2.0.10.353,12/5/2017,12/5/2017 19:18,14:18:40,2.0.10.248,4,,,,,,,?,4,1,4,,,,,,,,,1236,1670000,PANAS,,,,,,,,,BlockList,,,,,,,,,,,13,,,,,,,,,,,,,,PANAS13.bmp,,,,,,,,,,,13,2,35,5,1348,1704108,PANASProc,,,,,,,,,,,,PANASQuestions,,,,,,
RMEBPD Clinical Cog Load (2.13,2898,1,"<?xml version=""1.0""?>\n<Clock xmlns:dt=""urn:schemas-microsoft-com:datatypes""><Description dt:dt=""string"">E-Prime Primary Realtime Clock</Description><StartTime><Timestamp dt:dt=""int"">0</Timestamp><DateUtc dt:dt=""string"">2017-12-05T19:18:40Z</DateUtc></StartTime><FrequencyChanges><FrequencyChange><Frequency dt:dt=""r8"">2922978</Frequency><Timestamp dt:dt=""r8"">746266531998</Timestamp><Current dt:dt=""r8"">0</Current><DateUtc dt:dt=""string"">2017-12-05T19:18:40Z</DateUtc></FrequencyChange></FrequencyChanges></Clock>\n",RMEBPD Clinical Cog Load (2.13-2898-1,60.007,1.0.0.401,1,IC,-1057193573,Professional,2.0.10.353,2.0.10.353,12/5/2017,12/5/2017 19:18,14:18:40,2.0.10.248,4,,,,,,,?,4,1,4,,,,,,,,,1236,1670000,PANAS,,,,,,,,,BlockList,,,,,,,,,,,14,,,,,,,,,,,,,,PANAS14.bmp,,,,,,,,,,,14,2,36,3,2373,1706616,PANASProc,,,,,,,,,,,,PANASQuestions,,,,,,
RMEBPD Clinical Cog Load (2.13,2898,1,"<?xml version=""1.0""?>\n<Clock xmlns:dt=""urn:schemas-microsoft-com:datatypes""><Description dt:dt=""string"">E-Prime Primary Realtime Clock</Description><StartTime><Timestamp dt:dt=""int"">0</Timestamp><DateUtc dt:dt=""string"">2017-12-05T19:18:40Z</DateUtc></StartTime><FrequencyChanges><FrequencyChange><Frequency dt:dt=""r8"">2922978</Frequency><Timestamp dt:dt=""r8"">746266531998</Timestamp><Current dt:dt=""r8"">0</Current><DateUtc dt:dt=""string"">2017-12-05T19:18:40Z</DateUtc></FrequencyChange></FrequencyChanges></Clock>\n",RMEBPD Clinical Cog Load (2.13-2898-1,60.007,1.0.0.401,1,IC,-1057193573,Professional,2.0.10.353,2.0.10.353,12/5/2017,12/5/2017 19:18,14:18:40,2.0.10.248,4,,,,,,,?,4,1,4,,,,,,,,,1236,1670000,PANAS,,,,,,,,,BlockList,,,,,,,,,,,15,,,,,,,,,,,,,,PANAS15.bmp,,,,,,,,,,,15,2,37,1,1466,1708159,PANASProc,,,,,,,,,,,,PANASQuestions,,,,,,
RMEBPD Clinical Cog Load (2.13,2898,1,"<?xml version=""1.0""?>\n<Clock xmlns:dt=""urn:schemas-microsoft-com:datatypes""><Description dt:dt=""string"">E-Prime Primary Realtime Clock</Description><StartTime><Timestamp dt:dt=""int"">0</Timestamp><DateUtc dt:dt=""string"">2017-12-05T19:18:40Z</DateUtc></StartTime><FrequencyChanges><FrequencyChange><Frequency dt:dt=""r8"">2922978</Frequency><Timestamp dt:dt=""r8"">746266531998</Timestamp><Current dt:dt=""r8"">0</Current><DateUtc dt:dt=""string"">2017-12-05T19:18:40Z</DateUtc></FrequencyChange></FrequencyChanges></Clock>\n",RMEBPD Clinical Cog Load (2.13-2898-1,60.007,1.0.0.401,1,IC,-1057193573,Professional,2.0.10.353,2.0.10.353,12/5/2017,12/5/2017 19:18,14:18:40,2.0.10.248,4,,,,,,,?,4,1,4,,,,,,,,,1236,1670000,PANAS,,,,,,,,,BlockList,,,,,,,,,,,16,,,,,,,,,,,,,,PANAS16.bmp,,,,,,,,,,,16,2,38,5,999,1709225,PANASProc,,,,,,,,,,,,PANASQuestions,,,,,,
RMEBPD Clinical Cog Load (2.13,2898,1,"<?xml version=""1.0""?>\n<Clock xmlns:dt=""urn:schemas-microsoft-com:datatypes""><Description dt:dt=""string"">E-Prime Primary Realtime Clock</Description><StartTime><Timestamp dt:dt=""int"">0</Timestamp><DateUtc dt:dt=""string"">2017-12-05T19:18:40Z</DateUtc></StartTime><FrequencyChanges><FrequencyChange><Frequency dt:dt=""r8"">2922978</Frequency><Timestamp dt:dt=""r8"">746266531998</Timestamp><Current dt:dt=""r8"">0</Current><DateUtc dt:dt=""string"">2017-12-05T19:18:40Z</DateUtc></FrequencyChange></FrequencyChanges></Clock>\n",RMEBPD Clinical Cog Load (2.13-2898-1,60.007,1.0.0.401,1,IC,-1057193573,Professional,2.0.10.353,2.0.10.353,12/5/2017,12/5/2017 19:18,14:18:40,2.0.10.248,4,,,,,,,?,4,1,4,,,,,,,,,1236,1670000,PANAS,,,,,,,,,BlockList,,,,,,,,,,,17,,,,,,,,,,,,,,PANAS17.bmp,,,,,,,,,,,17,2,39,2,2218,1711544,PANASProc,,,,,,,,,,,,PANASQuestions,,,,,,
RMEBPD Clinical Cog Load (2.13,2898,1,"<?xml version=""1.0""?>\n<Clock xmlns:dt=""urn:schemas-microsoft-com:datatypes""><Description dt:dt=""string"">E-Prime Primary Realtime Clock</Description><StartTime><Timestamp dt:dt=""int"">0</Timestamp><DateUtc dt:dt=""string"">2017-12-05T19:18:40Z</DateUtc></StartTime><FrequencyChanges><FrequencyChange><Frequency dt:dt=""r8"">2922978</Frequency><Timestamp dt:dt=""r8"">746266531998</Timestamp><Current dt:dt=""r8"">0</Current><DateUtc dt:dt=""string"">2017-12-05T19:18:40Z</DateUtc></FrequencyChange></FrequencyChanges></Clock>\n",RMEBPD Clinical Cog Load (2.13-2898-1,60.007,1.0.0.401,1,IC,-1057193573,Professional,2.0.10.353,2.0.10.353,12/5/2017,12/5/2017 19:18,14:18:40,2.0.10.248,4,,,,,,,?,4,1,4,,,,,,,,,1236,1670000,PANAS,,,,,,,,,BlockList,,,,,,,,,,,18,,,,,,,,,,,,,,PANAS18.bmp,,,,,,,,,,,18,2,40,4,2102,1713711,PANASProc,,,,,,,,,,,,PANASQuestions,,,,,,
RMEBPD Clinical Cog Load (2.13,2898,1,"<?xml version=""1.0""?>\n<Clock xmlns:dt=""urn:schemas-microsoft-com:datatypes""><Description dt:dt=""string"">E-Prime Primary Realtime Clock</Description><StartTime><Timestamp dt:dt=""int"">0</Timestamp><DateUtc dt:dt=""string"">2017-12-05T19:18:40Z</DateUtc></StartTime><FrequencyChanges><FrequencyChange><Frequency dt:dt=""r8"">2922978</Frequency><Timestamp dt:dt=""r8"">746266531998</Timestamp><Current dt:dt=""r8"">0</Current><DateUtc dt:dt=""string"">2017-12-05T19:18:40Z</DateUtc></FrequencyChange></FrequencyChanges></Clock>\n",RMEBPD Clinical Cog Load (2.13-2898-1,60.007,1.0.0.401,1,IC,-1057193573,Professional,2.0.10.353,2.0.10.353,12/5/2017,12/5/2017 19:18,14:18:40,2.0.10.248,4,,,,,,,?,4,1,4,,,,,,,,,1236,1670000,PANAS,,,,,,,,,BlockList,,,,,,,,,,,19,,,,,,,,,,,,,,PANAS19.bmp,,,,,,,,,,,19,2,41,3,1708,1715484,PANASProc,,,,,,,,,,,,PANASQuestions,,,,,,
RMEBPD Clinical Cog Load (2.13,2898,1,"<?xml version=""1.0""?>\n<Clock xmlns:dt=""urn:schemas-microsoft-com:datatypes""><Description dt:dt=""string"">E-Prime Primary Realtime Clock</Description><StartTime><Timestamp dt:dt=""int"">0</Timestamp><DateUtc dt:dt=""string"">2017-12-05T19:18:40Z</DateUtc></StartTime><FrequencyChanges><FrequencyChange><Frequency dt:dt=""r8"">2922978</Frequency><Timestamp dt:dt=""r8"">746266531998</Timestamp><Current dt:dt=""r8"">0</Current><DateUtc dt:dt=""string"">2017-12-05T19:18:40Z</DateUtc></FrequencyChange></FrequencyChanges></Clock>\n",RMEBPD Clinical Cog Load (2.13-2898-1,60.007,1.0.0.401,1,IC,-1057193573,Professional,2.0.10.353,2.0.10.353,12/5/2017,12/5/2017 19:18,14:18:40,2.0.10.248,4,,,,,,,?,4,1,4,,,,,,,,,1236,1670000,PANAS,,,,,,,,,BlockList,,,,,,,,,,,20,,,,,,,,,,,,,,PANAS20.bmp,,,,,,,,,,,20,2,42,3,859,1716401,PANASProc,,,,,,,,,,,,PANASQuestions,,,,,,
RMEBPD Clinical Cog Load (2.13,2898,1,"<?xml version=""1.0""?>\n<Clock xmlns:dt=""urn:schemas-microsoft-com:datatypes""><Description dt:dt=""string"">E-Prime Primary Realtime Clock</Description><StartTime><Timestamp dt:dt=""int"">0</Timestamp><DateUtc dt:dt=""string"">2017-12-05T19:18:40Z</DateUtc></StartTime><FrequencyChanges><FrequencyChange><Frequency dt:dt=""r8"">2922978</Frequency><Timestamp dt:dt=""r8"">746266531998</Timestamp><Current dt:dt=""r8"">0</Current><DateUtc dt:dt=""string"">2017-12-05T19:18:40Z</DateUtc></FrequencyChange></FrequencyChanges></Clock>\n",RMEBPD Clinical Cog Load (2.13-2898-1,60.007,1.0.0.401,1,IC,-1057193573,Professional,2.0.10.353,2.0.10.353,12/5/2017,12/5/2017 19:18,14:18:40,2.0.10.248,4,,,,,,,?,4,1,4,,,,,,,,,1236,1670000,PANAS,,,,,,,,,BlockList,,,,,,,,,,,21,,,,,,,,,,,,,,PANAS21.bmp,,,,,,,,,,,21,2,43,1,1148,1717690,PANASProc,,,,,,,,,,,,PANASQuestions,,,,,,
RMEBPD Clinical Cog Load (2.13,2898,1,"<?xml version=""1.0""?>\n<Clock xmlns:dt=""urn:schemas-microsoft-com:datatypes""><Description dt:dt=""string"">E-Prime Primary Realtime Clock</Description><StartTime><Timestamp dt:dt=""int"">0</Timestamp><DateUtc dt:dt=""string"">2017-12-05T19:18:40Z</DateUtc></StartTime><FrequencyChanges><FrequencyChange><Frequency dt:dt=""r8"">2922978</Frequency><Timestamp dt:dt=""r8"">746266531998</Timestamp><Current dt:dt=""r8"">0</Current><DateUtc dt:dt=""string"">2017-12-05T19:18:40Z</DateUtc></FrequencyChange></FrequencyChanges></Clock>\n",RMEBPD Clinical Cog Load (2.13-2898-1,60.007,1.0.0.401,1,IC,-1057193573,Professional,2.0.10.353,2.0.10.353,12/5/2017,12/5/2017 19:18,14:18:40,2.0.10.248,4,,,,,,,?,4,1,4,,,,,,,,,1236,1670000,PANAS,,,,,,,,,BlockList,,,,,,,,,,,22,,,,,,,,,,,,,,PANAS22.bmp,,,,,,,,,,,22,2,44,4,1334,1719093,PANASProc,,,,,,,,,,,,PANASQuestions,,,,,,
RMEBPD Clinical Cog Load (2.13,2898,1,"<?xml version=""1.0""?>\n<Clock xmlns:dt=""urn:schemas-microsoft-com:datatypes""><Description dt:dt=""string"">E-Prime Primary Realtime Clock</Description><StartTime><Timestamp dt:dt=""int"">0</Timestamp><DateUtc dt:dt=""string"">2017-12-05T19:18:40Z</DateUtc></StartTime><FrequencyChanges><FrequencyChange><Frequency dt:dt=""r8"">2922978</Frequency><Timestamp dt:dt=""r8"">746266531998</Timestamp><Current dt:dt=""r8"">0</Current><DateUtc dt:dt=""string"">2017-12-05T19:18:40Z</DateUtc></FrequencyChange></FrequencyChanges></Clock>\n",RMEBPD Clinical Cog Load (2.13-2898-1,60.007,1.0.0.401,1,IC,-1057193573,Professional,2.0.10.353,2.0.10.353,12/5/2017,12/5/2017 19:18,14:18:40,2.0.10.248,5,,,,,,,?,5,1,5,,,,,,,,,,,STAI,,,,,,,,,BlockList,,,,,,,,,968,1720126,1,,,,,,,,,,,,,,STAI01.bmp,,,,,,,,,,,,,,,,,STAIProc,,,,,,,,,,,,STAIQuestions,1,2,21,1,3586,1723778
RMEBPD Clinical Cog Load (2.13,2898,1,"<?xml version=""1.0""?>\n<Clock xmlns:dt=""urn:schemas-microsoft-com:datatypes""><Description dt:dt=""string"">E-Prime Primary Realtime Clock</Description><StartTime><Timestamp dt:dt=""int"">0</Timestamp><DateUtc dt:dt=""string"">2017-12-05T19:18:40Z</DateUtc></StartTime><FrequencyChanges><FrequencyChange><Frequency dt:dt=""r8"">2922978</Frequency><Timestamp dt:dt=""r8"">746266531998</Timestamp><Current dt:dt=""r8"">0</Current><DateUtc dt:dt=""string"">2017-12-05T19:18:40Z</DateUtc></FrequencyChange></FrequencyChanges></Clock>\n",RMEBPD Clinical Cog Load (2.13-2898-1,60.007,1.0.0.401,1,IC,-1057193573,Professional,2.0.10.353,2.0.10.353,12/5/2017,12/5/2017 19:18,14:18:40,2.0.10.248,5,,,,,,,?,5,1,5,,,,,,,,,,,STAI,,,,,,,,,BlockList,,,,,,,,,968,1720126,2,,,,,,,,,,,,,,STAI02.bmp,,,,,,,,,,,,,,,,,STAIProc,,,,,,,,,,,,STAIQuestions,2,2,22,1,1173,1724981
