ExperimentName,Subject,Session,Clock.Information,DataFile.Basename,Display.RefreshRate,ExperimentVersion,goodbye.DEVICE,Group,Initials,RandomSeed,RuntimeCapabilities,RuntimeVersion,RuntimeVersionExpected,SessionDate,SessionStartDateTimeUtc,SessionTime,StudioVersion,Block,AnsAbility.DEVICE,AnsAbility.RESP,AnsAbility.RT,AnsAbility.RTTime,AnsHonest.DEVICE,AnsHonest.RESP,AnsHonest.RT,AnsHonest.RTTime,Attribute1,BeginWARN.DEVICE,BlockList,BlockList.Cycle,BlockList.Sample,colorinstruc.DEVICE,Instruct.DEVICE,LoadInstruct.DEVICE,NumberRecall1.ACC,NumberRecall1.CRESP,NumberRecall1.DEVICE,NumberRecall1.DurationError,NumberRecall1.OnsetDelay,NumberRecall1.OnsetTime,NumberRecall1.RESP,NumberRecall1.RT,NumberRecall1.RTTime,PANASnext.DEVICE,PANASnext.RT,PANASnext.RTTime,PracWarn.DEVICE,Procedure[Block],RMEStim1.ACC,RMEStim1.CRESP,RMEStim1.DEVICE,RMEStim1.DurationError,RMEStim1.OnsetDelay,RMEStim1.OnsetTime,RMEStim1.RESP,RMEStim1.RT,RMEStim1.RTTime,Running[Block],Slide2.ACC,Slide2.CRESP,Slide2.DEVICE,Slide2.DurationError,Slide2.OnsetDelay,Slide2.OnsetTime,Slide2.RESP,Slide2.RT,Slide2.RTTime,STAInext.DEVICE,STAInext.RT,STAInext.RTTime,Trial,colordiscrim,colordiscrim.Cycle,colordiscrim.Sample,colortask.ACC,colortask.CRESP,colortask.DEVICE,colortask.DurationError,colortask.OnsetDelay,colortask.OnsetTime,colortask.RESP,colortask.RT,colortask.RTTime,CorrectAnswer,correctanswernum,filename,NumberRecall.ACC,NumberRecall.CRESP,NumberRecall.DEVICE,NumberRecall.DurationError,NumberRecall.OnsetDelay,NumberRecall.OnsetTime,NumberRecall.RESP,NumberRecall.RT,NumberRecall.RTTime,Numbers,NumRecall,PANASQuestions,PANASQuestions.Cycle,PANASQuestions.Sample,PANASStim.DEVICE,PANASStim.RESP,PANASStim.RT,PANASStim.RTTime,Procedure[Trial],RMEStim.ACC,RMEStim.CRESP,RMEStim.DEVICE,RMEStim.DurationError,RMEStim.OnsetDelay,RMEStim.OnsetTime,RMEStim.RESP,RMEStim.RT,RMEStim.RTTime,RMETrialList,RMETrialList.Cycle,RMETrialList.Sample,Running[Trial],STAIQuestions,STAIQuestions.Cycle,STAIQuestions.Sample,STAIStim.DEVICE,STAIStim.RESP,STAIStim.RT,STAIStim.RTTime
RMEBPD Clinical Cog Load (2.13.15) Laptop version (2),2911,1,"<?xml version=""1.0""?>\n<Clock xmlns:dt=""urn:schemas-microsoft-com:datatypes""><Description dt:dt=""string"">E-Prime Primary Realtime Clock</Description><StartTime><Timestamp dt:dt=""int"">0</Timestamp><DateUtc dt:dt=""string"">2018-03-23T19:26:33Z</DateUtc></StartTime><FrequencyChanges><FrequencyChange><Frequency dt:dt=""r8"">2922933</Frequency><Timestamp dt:dt=""r8"">775629214389</Timestamp><Current dt:dt=""r8"">0</Current><DateUtc dt:dt=""string"">2018-03-23T19:26:33Z</DateUtc></FrequencyChange></FrequencyChanges></Clock>\n",RMEBPD Clinical Cog Load (2.13.15) Laptop version (2)-2911-1,60.006,1.0.0.451,Keyboard,1,PW,-1759284922,Full,3.0.3.60,3.0.3.60,3/23/2018,3/23/2018 19:26,15:26:34,3.0.3.43,1,,,,,,,,,?,,1,1,1,,,,,,,,,,,,,,,,,STAI,,,,,,,,,,BlockList,,,,,,,,,,Keyboard,40514,238690,1,,,,,,,,,,,,,,,STAI01.bmp,,,,,,,,,,,,,,,,,,,STAIProc,,,,,,,,,,,,,STAIQuestions,1,1,1,Keyboard,2,5709,244415
RMEBPD Clinical Cog Load (2.13.15) Laptop version (2),2911,1,"<?xml version=""1.0""?>\n<Clock xmlns:dt=""urn:schemas-microsoft-com:datatypes""><Description dt:dt=""string"">E-Prime Primary Realtime Clock</Description><StartTime><Timestamp dt:dt=""int"">0</Timestamp><DateUtc dt:dt=""string"">2018-03-23T19:26:33Z</DateUtc></StartTime><FrequencyChanges><FrequencyChange><Frequency dt:dt=""r8"">2922933</Frequency><Timestamp dt:dt=""r8"">775629214389</Timestamp><Current dt:dt=""r8"">0</Current><DateUtc dt:dt=""string"">2018-03-23T19:26:33Z</DateUtc></FrequencyChange></FrequencyChanges></Clock>\n",RMEBPD Clinical Cog Load (2.13.15) Laptop version (2)-2911-1,60.006,1.0.0.451,Keyboard,1,PW,-1759284922,Full,3.0.3.60,3.0.3.60,3/23/2018,3/23/2018 19:26,15:26:34,3.0.3.43,1,,,,,,,,,?,,1,1,1,,,,,,,,,,,,,,,,,STAI,,,,,,,,,,BlockList,,,,,,,,,,Keyboard,40514,238690,2,,,,,,,,,,,,,,,STAI02.bmp,,,,,,,,,,,,,,,,,,,STAIProc,,,,,,,,,,,,,STAIQuestions,2,1,2,Keyboard,2,2828,247267
RMEBPD Clinical Cog Load (2.13.15) Laptop version (2),2911,1,"<?xml version=""1.0""?>\n<Clock xmlns:dt=""urn:schemas-microsoft-com:datatypes""><Description dt:dt=""string"">E-Prime Primary Realtime Clock</Description><StartTime><Timestamp dt:dt=""int"">0</Timestamp><DateUtc dt:dt=""string"">2018-03-23T19:26:33Z</DateUtc></StartTime><FrequencyChanges><FrequencyChange><Frequency dt:dt=""r8"">2922933</Frequency><Timestamp dt:dt=""r8"">775629214389</Timestamp><Current dt:dt=""r8"">0</Current><DateUtc dt:dt=""string"">2018-03-23T19:26:33Z</DateUtc></FrequencyChange></FrequencyChanges></Clock>\n",RMEBPD Clinical Cog Load (2.13.15) Laptop version (2)-2911-1,60.006,1.0.0.451,Keyboard,1,PW,-1759284922,Full,3.0.3.60,3.0.3.60,3/23/2018,3/23/2018 19:26,15:26:34,3.0.3.43,1,,,,,,,,,?,,1,1,1,,,,,,,,,,,,,,,,,STAI,,,,,,,,,,BlockList,,,,,,,,,,Keyboard,40514,238690,3,,,,,,,,,,,,,,,STAI03.bmp,,,,,,,,,,,,,,,,,,,STAIProc,,,,,,,,,,,,,STAIQuestions,3,1,3,Keyboard,3,2311,249600
RMEBPD Clinical Cog Load (2.13.15) Laptop version (2),2911,1,"<?xml version=""1.0""?>\n<Clock xmlns:dt=""urn:schemas-microsoft-com:datatypes""><Description dt:dt=""string"">E-Prime Primary Realtime Clock</Description><StartTime><Timestamp dt:dt=""int"">0</Timestamp><DateUtc dt:dt=""string"">2018-03-23T19:26:33Z</DateUtc></StartTime><FrequencyChanges><FrequencyChange><Frequency dt:dt=""r8"">2922933</Frequency><Timestamp dt:dt=""r8"">775629214389</Timestamp><Current dt:dt=""r8"">0</Current><DateUtc dt:dt=""string"">2018-03-23T19:26:33Z</DateUtc></FrequencyChange></FrequencyChanges></Clock>\n",RMEBPD Clinical Cog Load (2.13.15) Laptop version (2)-2911-1,60.006,1.0.0.451,Keyboard,1,PW,-1759284922,Full,3.0.3.60,3.0.3.60,3/23/2018,3/23/2018 19:26,15:26:34,3.0.3.43,1,,,,,,,,,?,,1,1,1,,,,,,,,,,,,,,,,,STAI,,,,,,,,,,BlockList,,,,,,,,,,Keyboard,40514,238690,4,,,,,,,,,,,,,,,STAI04.bmp,,,,,,,,,,,,,,,,,,,STAIProc,,,,,,,,,,,,,STAIQuestions,4,1,4,Keyboard,2,2968,252590
RMEBPD Clinical Cog Load (2.13.15) Laptop version (2),2911,1,"<?xml version=""1.0""?>\n<Clock xmlns:dt=""urn:schemas-microsoft-com:datatypes""><Description dt:dt=""string"">E-Prime Primary Realtime Clock</Description><StartTime><Timestamp dt:dt=""int"">0</Timestamp><DateUtc dt:dt=""string"">2018-03-23T19:26:33Z</DateUtc></StartTime><FrequencyChanges><FrequencyChange><Frequency dt:dt=""r8"">2922933</Frequency><Timestamp dt:dt=""r8"">775629214389</Timestamp><Current dt:dt=""r8"">0</Current><DateUtc dt:dt=""string"">2018-03-23T19:26:33Z</DateUtc></FrequencyChange></FrequencyChanges></Clock>\n",RMEBPD Clinical Cog Load (2.13.15) Laptop version (2)-2911-1,60.006,1.0.0.451,Keyboard,1,PW,-1759284922,Full,3.0.3.60,3.0.3.60,3/23/2018,3/23/2018 19:26,15:26:34,3.0.3.43,1,,,,,,,,,?,,1,1,1,,,,,,,,,,,,,,,,,STAI,,,,,,,,,,BlockList,,,,,,,,,,Keyboard,40514,238690,5,,,,,,,,,,,,,,,STAI05.bmp,,,,,,,,,,,,,,,,,,,STAIProc,,,,,,,,,,,,,STAIQuestions,5,1,5,Keyboard,1,3376,255981
RMEBPD Clinical Cog Load (2.13.15) Laptop version (2),2911,1,"<?xml version=""1.0""?>\n<Clock xmlns:dt=""urn:schemas-microsoft-com:datatypes""><Description dt:dt=""string"">E-Prime Primary Realtime Clock</Description><StartTime><Timestamp dt:dt=""int"">0</Timestamp><DateUtc dt:dt=""string"">2018-03-23T19:26:33Z</DateUtc></StartTime><FrequencyChanges><FrequencyChange><Frequency dt:dt=""r8"">2922933</Frequency><Timestamp dt:dt=""r8"">775629214389</Timestamp><Current dt:dt=""r8"">0</Current><DateUtc dt:dt=""string"">2018-03-23T19:26:33Z</DateUtc></FrequencyChange></FrequencyChanges></Clock>\n",RMEBPD Clinical Cog Load (2.13.15) Laptop version (2)-2911-1,60.006,1.0.0.451,Keyboard,1,PW,-1759284922,Full,3.0.3.60,3.0.3.60,3/23/2018,3/23/2018 19:26,15:26:34,3.0.3.43,1,,,,,,,,,?,,1,1,1,,,,,,,,,,,,,,,,,STAI,,,,,,,,,,BlockList,,,,,,,,,,Keyboard,40514,238690,6,,,,,,,,,,,,,,,STAI06.bmp,,,,,,,,,,,,,,,,,,,STAIProc,,,,,,,,,,,,,STAIQuestions,6,1,6,Keyboard,4,1857,257861
RMEBPD Clinical Cog Load (2.13.15) Laptop version (2),2911,1,"<?xml version=""1.0""?>\n<Clock xmlns:dt=""urn:schemas-microsoft-com:datatypes""><Description dt:dt=""string"">E-Prime Primary Realtime Clock</Description><StartTime><Timestamp dt:dt=""int"">0</Timestamp><DateUtc dt:dt=""string"">2018-03-23T19:26:33Z</DateUtc></StartTime><FrequencyChanges><FrequencyChange><Frequency dt:dt=""r8"">2922933</Frequency><Timestamp dt:dt=""r8"">775629214389</Timestamp><Current dt:dt=""r8"">0</Current><DateUtc dt:dt=""string"">2018-03-23T19:26:33Z</DateUtc></FrequencyChange></FrequencyChanges></Clock>\n",RMEBPD Clinical Cog Load (2.13.15) Laptop version (2)-2911-1,60.006,1.0.0.451,Keyboard,1,PW,-1759284922,Full,3.0.3.60,3.0.3.60,3/23/2018,3/23/2018 19:26,15:26:34,3.0.3.43,1,,,,,,,,,?,,1,1,1,,,,,,,,,,,,,,,,,STAI,,,,,,,,,,BlockList,,,,,,,,,,Keyboard,40514,238690,7,,,,,,,,,,,,,,,STAI07.bmp,,,,,,,,,,,,,,,,,,,STAIProc,,,,,,,,,,,,,STAIQuestions,7,1,7,Keyboard,4,3555,261443
RMEBPD Clinical Cog Load (2.13.15) Laptop version (2),2911,1,"<?xml version=""1.0""?>\n<Clock xmlns:dt=""urn:schemas-microsoft-com:datatypes""><Description dt:dt=""string"">E-Prime Primary Realtime Clock</Description><StartTime><Timestamp dt:dt=""int"">0</Timestamp><DateUtc dt:dt=""string"">2018-03-23T19:26:33Z</DateUtc></StartTime><FrequencyChanges><FrequencyChange><Frequency dt:dt=""r8"">2922933</Frequency><Timestamp dt:dt=""r8"">775629214389</Timestamp><Current dt:dt=""r8"">0</Current><DateUtc dt:dt=""string"">2018-03-23T19:26:33Z</DateUtc></FrequencyChange></FrequencyChanges></Clock>\n",RMEBPD Clinical Cog Load (2.13.15) Laptop version (2)-2911-1,60.006,1.0.0.451,Keyboard,1,PW,-1759284922,Full,3.0.3.60,3.0.3.60,3/23/2018,3/23/2018 19:26,15:26:34,3.0.3.43,1,,,,,,,,,?,,1,1,1,,,,,,,,,,,,,,,,,STAI,,,,,,,,,,BlockList,,,,,,,,,,Keyboard,40514,238690,8,,,,,,,,,,,,,,,STAI08.bmp,,,,,,,,,,,,,,,,,,,STAIProc,,,,,,,,,,,,,STAIQuestions,8,1,8,Keyboard,1,1922,263393
RMEBPD Clinical Cog Load (2.13.15) Laptop version (2),2911,1,"<?xml version=""1.0""?>\n<Clock xmlns:dt=""urn:schemas-microsoft-com:datatypes""><Description dt:dt=""string"">E-Prime Primary Realtime Clock</Description><StartTime><Timestamp dt:dt=""int"">0</Timestamp><DateUtc dt:dt=""string"">2018-03-23T19:26:33Z</DateUtc></StartTime><FrequencyChanges><FrequencyChange><Frequency dt:dt=""r8"">2922933</Frequency><Timestamp dt:dt=""r8"">775629214389</Timestamp><Current dt:dt=""r8"">0</Current><DateUtc dt:dt=""string"">2018-03-23T19:26:33Z</DateUtc></FrequencyChange></FrequencyChanges></Clock>\n",RMEBPD Clinical Cog Load (2.13.15) Laptop version (2)-2911-1,60.006,1.0.0.451,Keyboard,1,PW,-1759284922,Full,3.0.3.60,3.0.3.60,3/23/2018,3/23/2018 19:26,15:26:34,3.0.3.43,1,,,,,,,,,?,,1,1,1,,,,,,,,,,,,,,,,,STAI,,,,,,,,,,BlockList,,,,,,,,,,Keyboard,40514,238690,9,,,,,,,,,,,,,,,STAI09.bmp,,,,,,,,,,,,,,,,,,,STAIProc,,,,,,,,,,,,,STAIQuestions,9,1,9,Keyboard,2,2207,265627
RMEBPD Clinical Cog Load (2.13.15) Laptop version (2),2911,1,"<?xml version=""1.0""?>\n<Clock xmlns:dt=""urn:schemas-microsoft-com:datatypes""><Description dt:dt=""string"">E-Prime Primary Realtime Clock</Description><StartTime><Timestamp dt:dt=""int"">0</Timestamp><DateUtc dt:dt=""string"">2018-03-23T19:26:33Z</DateUtc></StartTime><FrequencyChanges><FrequencyChange><Frequency dt:dt=""r8"">2922933</Frequency><Timestamp dt:dt=""r8"">775629214389</Timestamp><Current dt:dt=""r8"">0</Current><DateUtc dt:dt=""string"">2018-03-23T19:26:33Z</DateUtc></FrequencyChange></FrequencyChanges></Clock>\n",RMEBPD Clinical Cog Load (2.13.15) Laptop version (2)-2911-1,60.006,1.0.0.451,Keyboard,1,PW,-1759284922,Full,3.0.3.60,3.0.3.60,3/23/2018,3/23/2018 19:26,15:26:34,3.0.3.43,1,,,,,,,,,?,,1,1,1,,,,,,,,,,,,,,,,,STAI,,,,,,,,,,BlockList,,,,,,,,,,Keyboard,40514,238690,10,,,,,,,,,,,,,,,STAI10.bmp,,,,,,,,,,,,,,,,,,,STAIProc,,,,,,,,,,,,,STAIQuestions,10,1,10,Keyboard,2,2871,268525
RMEBPD Clinical Cog Load (2.13.15) Laptop version (2),2911,1,"<?xml version=""1.0""?>\n<Clock xmlns:dt=""urn:schemas-microsoft-com:datatypes""><Description dt:dt=""string"">E-Prime Primary Realtime Clock</Description><StartTime><Timestamp dt:dt=""int"">0</Timestamp><DateUtc dt:dt=""string"">2018-03-23T19:26:33Z</DateUtc></StartTime><FrequencyChanges><FrequencyChange><Frequency dt:dt=""r8"">2922933</Frequency><Timestamp dt:dt=""r8"">775629214389</Timestamp><Current dt:dt=""r8"">0</Current><DateUtc dt:dt=""string"">2018-03-23T19:26:33Z</DateUtc></FrequencyChange></FrequencyChanges></Clock>\n",RMEBPD Clinical Cog Load (2.13.15) Laptop version (2)-2911-1,60.006,1.0.0.451,Keyboard,1,PW,-1759284922,Full,3.0.3.60,3.0.3.60,3/23/2018,3/23/2018 19:26,15:26:34,3.0.3.43,1,,,,,,,,,?,,1,1,1,,,,,,,,,,,,,,,,,STAI,,,,,,,,,,BlockList,,,,,,,,,,Keyboard,40514,238690,11,,,,,,,,,,,,,,,STAI11.bmp,,,,,,,,,,,,,,,,,,,STAIProc,,,,,,,,,,,,,STAIQuestions,11,1,11,Keyboard,2,1273,269826
RMEBPD Clinical Cog Load (2.13.15) Laptop version (2),2911,1,"<?xml version=""1.0""?>\n<Clock xmlns:dt=""urn:schemas-microsoft-com:datatypes""><Description dt:dt=""string"">E-Prime Primary Realtime Clock</Description><StartTime><Timestamp dt:dt=""int"">0</Timestamp><DateUtc dt:dt=""string"">2018-03-23T19:26:33Z</DateUtc></StartTime><FrequencyChanges><FrequencyChange><Frequency dt:dt=""r8"">2922933</Frequency><Timestamp dt:dt=""r8"">775629214389</Timestamp><Current dt:dt=""r8"">0</Current><DateUtc dt:dt=""string"">2018-03-23T19:26:33Z</DateUtc></FrequencyChange></FrequencyChanges></Clock>\n",RMEBPD Clinical Cog Load (2.13.15) Laptop version (2)-2911-1,60.006,1.0.0.451,Keyboard,1,PW,-1759284922,Full,3.0.3.60,3.0.3.60,3/23/2018,3/23/2018 19:26,15:26:34,3.0.3.43,1,,,,,,,,,?,,1,1,1,,,,,,,,,,,,,,,,,STAI,,,,,,,,,,BlockList,,,,,,,,,,Keyboard,40514,238690,12,,,,,,,,,,,,,,,STAI12.bmp,,,,,,,,,,,,,,,,,,,STAIProc,,,,,,,,,,,,,STAIQuestions,12,1,12,Keyboard,2,1671,271524
RMEBPD Clinical Cog Load (2.13.15) Laptop version (2),2911,1,"<?xml version=""1.0""?>\n<Clock xmlns:dt=""urn:schemas-microsoft-com:datatypes""><Description dt:dt=""string"">E-Prime Primary Realtime Clock</Description><StartTime><Timestamp dt:dt=""int"">0</Timestamp><DateUtc dt:dt=""string"">2018-03-23T19:26:33Z</DateUtc></StartTime><FrequencyChanges><FrequencyChange><Frequency dt:dt=""r8"">2922933</Frequency><Timestamp dt:dt=""r8"">775629214389</Timestamp><Current dt:dt=""r8"">0</Current><DateUtc dt:dt=""string"">2018-03-23T19:26:33Z</DateUtc></FrequencyChange></FrequencyChanges></Clock>\n",RMEBPD Clinical Cog Load (2.13.15) Laptop version (2)-2911-1,60.006,1.0.0.451,Keyboard,1,PW,-1759284922,Full,3.0.3.60,3.0.3.60,3/23/2018,3/23/2018 19:26,15:26:34,3.0.3.43,1,,,,,,,,,?,,1,1,1,,,,,,,,,,,,,,,,,STAI,,,,,,,,,,BlockList,,,,,,,,,,Keyboard,40514,238690,13,,,,,,,,,,,,,,,STAI13.bmp,,,,,,,,,,,,,,,,,,,STAIProc,,,,,,,,,,,,,STAIQuestions,13,1,13,Keyboard,2,985,272538
RMEBPD Clinical Cog Load (2.13.15) Laptop version (2),2911,1,"<?xml version=""1.0""?>\n<Clock xmlns:dt=""urn:schemas-microsoft-com:datatypes""><Description dt:dt=""string"">E-Prime Primary Realtime Clock</Description><StartTime><Timestamp dt:dt=""int"">0</Timestamp><DateUtc dt:dt=""string"">2018-03-23T19:26:33Z</DateUtc></StartTime><FrequencyChanges><FrequencyChange><Frequency dt:dt=""r8"">2922933</Frequency><Timestamp dt:dt=""r8"">775629214389</Timestamp><Current dt:dt=""r8"">0</Current><DateUtc dt:dt=""string"">2018-03-23T19:26:33Z</DateUtc></FrequencyChange></FrequencyChanges></Clock>\n",RMEBPD Clinical Cog Load (2.13.15) Laptop version (2)-2911-1,60.006,1.0.0.451,Keyboard,1,PW,-1759284922,Full,3.0.3.60,3.0.3.60,3/23/2018,3/23/2018 19:26,15:26:34,3.0.3.43,1,,,,,,,,,?,,1,1,1,,,,,,,,,,,,,,,,,STAI,,,,,,,,,,BlockList,,,,,,,,,,Keyboard,40514,238690,14,,,,,,,,,,,,,,,STAI14.bmp,,,,,,,,,,,,,,,,,,,STAIProc,,,,,,,,,,,,,STAIQuestions,14,1,14,Keyboard,2,2358,274911
RMEBPD Clinical Cog Load (2.13.15) Laptop version (2),2911,1,"<?xml version=""1.0""?>\n<Clock xmlns:dt=""urn:schemas-microsoft-com:datatypes""><Description dt:dt=""string"">E-Prime Primary Realtime Clock</Description><StartTime><Timestamp dt:dt=""int"">0</Timestamp><DateUtc dt:dt=""string"">2018-03-23T19:26:33Z</DateUtc></StartTime><FrequencyChanges><FrequencyChange><Frequency dt:dt=""r8"">2922933</Frequency><Timestamp dt:dt=""r8"">775629214389</Timestamp><Current dt:dt=""r8"">0</Current><DateUtc dt:dt=""string"">2018-03-23T19:26:33Z</DateUtc></FrequencyChange></FrequencyChanges></Clock>\n",RMEBPD Clinical Cog Load (2.13.15) Laptop version (2)-2911-1,60.006,1.0.0.451,Keyboard,1,PW,-1759284922,Full,3.0.3.60,3.0.3.60,3/23/2018,3/23/2018 19:26,15:26:34,3.0.3.43,1,,,,,,,,,?,,1,1,1,,,,,,,,,,,,,,,,,STAI,,,,,,,,,,BlockList,,,,,,,,,,Keyboard,40514,238690,15,,,,,,,,,,,,,,,STAI15.bmp,,,,,,,,,,,,,,,,,,,STAIProc,,,,,,,,,,,,,STAIQuestions,15,1,15,Keyboard,2,1181,276117
RMEBPD Clinical Cog Load (2.13.15) Laptop version (2),2911,1,"<?xml version=""1.0""?>\n<Clock xmlns:dt=""urn:schemas-microsoft-com:datatypes""><Description dt:dt=""string"">E-Prime Primary Realtime Clock</Description><StartTime><Timestamp dt:dt=""int"">0</Timestamp><DateUtc dt:dt=""string"">2018-03-23T19:26:33Z</DateUtc></StartTime><FrequencyChanges><FrequencyChange><Frequency dt:dt=""r8"">2922933</Frequency><Timestamp dt:dt=""r8"">775629214389</Timestamp><Current dt:dt=""r8"">0</Current><DateUtc dt:dt=""string"">2018-03-23T19:26:33Z</DateUtc></FrequencyChange></FrequencyChanges></Clock>\n",RMEBPD Clinical Cog Load (2.13.15) Laptop version (2)-2911-1,60.006,1.0.0.451,Keyboard,1,PW,-1759284922,Full,3.0.3.60,3.0.3.60,3/23/2018,3/23/2018 19:26,15:26:34,3.0.3.43,1,,,,,,,,,?,,1,1,1,,,,,,,,,,,,,,,,,STAI,,,,,,,,,,BlockList,,,,,,,,,,Keyboard,40514,238690,16,,,,,,,,,,,,,,,STAI16.bmp,,,,,,,,,,,,,,,,,,,STAIProc,,,,,,,,,,,,,STAIQuestions,16,1,16,Keyboard,2,4806,280942
RMEBPD Clinical Cog Load (2.13.15) Laptop version (2),2911,1,"<?xml version=""1.0""?>\n<Clock xmlns:dt=""urn:schemas-microsoft-com:datatypes""><Description dt:dt=""string"">E-Prime Primary Realtime Clock</Description><StartTime><Timestamp dt:dt=""int"">0</Timestamp><DateUtc dt:dt=""string"">2018-03-23T19:26:33Z</DateUtc></StartTime><FrequencyChanges><FrequencyChange><Frequency dt:dt=""r8"">2922933</Frequency><Timestamp dt:dt=""r8"">775629214389</Timestamp><Current dt:dt=""r8"">0</Current><DateUtc dt:dt=""string"">2018-03-23T19:26:33Z</DateUtc></FrequencyChange></FrequencyChanges></Clock>\n",RMEBPD Clinical Cog Load (2.13.15) Laptop version (2)-2911-1,60.006,1.0.0.451,Keyboard,1,PW,-1759284922,Full,3.0.3.60,3.0.3.60,3/23/2018,3/23/2018 19:26,15:26:34,3.0.3.43,1,,,,,,,,,?,,1,1,1,,,,,,,,,,,,,,,,,STAI,,,,,,,,,,BlockList,,,,,,,,,,Keyboard,40514,238690,17,,,,,,,,,,,,,,,STAI17.bmp,,,,,,,,,,,,,,,,,,,STAIProc,,,,,,,,,,,,,STAIQuestions,17,1,17,Keyboard,4,1968,282937
RMEBPD Clinical Cog Load (2.13.15) Laptop version (2),2911,1,"<?xml version=""1.0""?>\n<Clock xmlns:dt=""urn:schemas-microsoft-com:datatypes""><Description dt:dt=""string"">E-Prime Primary Realtime Clock</Description><StartTime><Timestamp dt:dt=""int"">0</Timestamp><DateUtc dt:dt=""string"">2018-03-23T19:26:33Z</DateUtc></StartTime><FrequencyChanges><FrequencyChange><Frequency dt:dt=""r8"">2922933</Frequency><Timestamp dt:dt=""r8"">775629214389</Timestamp><Current dt:dt=""r8"">0</Current><DateUtc dt:dt=""string"">2018-03-23T19:26:33Z</DateUtc></FrequencyChange></FrequencyChanges></Clock>\n",RMEBPD Clinical Cog Load (2.13.15) Laptop version (2)-2911-1,60.006,1.0.0.451,Keyboard,1,PW,-1759284922,Full,3.0.3.60,3.0.3.60,3/23/2018,3/23/2018 19:26,15:26:34,3.0.3.43,1,,,,,,,,,?,,1,1,1,,,,,,,,,,,,,,,,,STAI,,,,,,,,,,BlockList,,,,,,,,,,Keyboard,40514,238690,18,,,,,,,,,,,,,,,STAI18.bmp,,,,,,,,,,,,,,,,,,,STAIProc,,,,,,,,,,,,,STAIQuestions,18,1,18,Keyboard,2,4726,287678
RMEBPD Clinical Cog Load (2.13.15) Laptop version (2),2911,1,"<?xml version=""1.0""?>\n<Clock xmlns:dt=""urn:schemas-microsoft-com:datatypes""><Description dt:dt=""string"">E-Prime Primary Realtime Clock</Description><StartTime><Timestamp dt:dt=""int"">0</Timestamp><DateUtc dt:dt=""string"">2018-03-23T19:26:33Z</DateUtc></StartTime><FrequencyChanges><FrequencyChange><Frequency dt:dt=""r8"">2922933</Frequency><Timestamp dt:dt=""r8"">775629214389</Timestamp><Current dt:dt=""r8"">0</Current><DateUtc dt:dt=""string"">2018-03-23T19:26:33Z</DateUtc></FrequencyChange></FrequencyChanges></Clock>\n",RMEBPD Clinical Cog Load (2.13.15) Laptop version (2)-2911-1,60.006,1.0.0.451,Keyboard,1,PW,-1759284922,Full,3.0.3.60,3.0.3.60,3/23/2018,3/23/2018 19:26,15:26:34,3.0.3.43,1,,,,,,,,,?,,1,1,1,,,,,,,,,,,,,,,,,STAI,,,,,,,,,,BlockList,,,,,,,,,,Keyboard,40514,238690,19,,,,,,,,,,,,,,,STAI19.bmp,,,,,,,,,,,,,,,,,,,STAIProc,,,,,,,,,,,,,STAIQuestions,19,1,19,Keyboard,2,829,288531
RMEBPD Clinical Cog Load (2.13.15) Laptop version (2),2911,1,"<?xml version=""1.0""?>\n<Clock xmlns:dt=""urn:schemas-microsoft-com:datatypes""><Description dt:dt=""string"">E-Prime Primary Realtime Clock</Description><StartTime><Timestamp dt:dt=""int"">0</Timestamp><DateUtc dt:dt=""string"">2018-03-23T19:26:33Z</DateUtc></StartTime><FrequencyChanges><FrequencyChange><Frequency dt:dt=""r8"">2922933</Frequency><Timestamp dt:dt=""r8"">775629214389</Timestamp><Current dt:dt=""r8"">0</Current><DateUtc dt:dt=""string"">2018-03-23T19:26:33Z</DateUtc></FrequencyChange></FrequencyChanges></Clock>\n",RMEBPD Clinical Cog Load (2.13.15) Laptop version (2)-2911-1,60.006,1.0.0.451,Keyboard,1,PW,-1759284922,Full,3.0.3.60,3.0.3.60,3/23/2018,3/23/2018 19:26,15:26:34,3.0.3.43,1,,,,,,,,,?,,1,1,1,,,,,,,,,,,,,,,,,STAI,,,,,,,,,,BlockList,,,,,,,,,,Keyboard,40514,238690,20,,,,,,,,,,,,,,,STAI20.bmp,,,,,,,,,,,,,,,,,,,STAIProc,,,,,,,,,,,,,STAIQuestions,20,1,20,Keyboard,1,3917,292468
RMEBPD Clinical Cog Load (2.13.15) Laptop version (2),2911,1,"<?xml version=""1.0""?>\n<Clock xmlns:dt=""urn:schemas-microsoft-com:datatypes""><Description dt:dt=""string"">E-Prime Primary Realtime Clock</Description><StartTime><Timestamp dt:dt=""int"">0</Timestamp><DateUtc dt:dt=""string"">2018-03-23T19:26:33Z</DateUtc></StartTime><FrequencyChanges><FrequencyChange><Frequency dt:dt=""r8"">2922933</Frequency><Timestamp dt:dt=""r8"">775629214389</Timestamp><Current dt:dt=""r8"">0</Current><DateUtc dt:dt=""string"">2018-03-23T19:26:33Z</DateUtc></FrequencyChange></FrequencyChanges></Clock>\n",RMEBPD Clinical Cog Load (2.13.15) Laptop version (2)-2911-1,60.006,1.0.0.451,Keyboard,1,PW,-1759284922,Full,3.0.3.60,3.0.3.60,3/23/2018,3/23/2018 19:26,15:26:34,3.0.3.43,2,,,,,,,,,?,,2,1,2,,,,,,,,,,,,,Keyboard,2763,295247,,PANAS,,,,,,,,,,BlockList,,,,,,,,,,,,,1,,,,,,,,,,,,,,,PANAS01.bmp,,,,,,,,,,,,1,1,1,Keyboard,2,3154,298421,PANASProc,,,,,,,,,,,,,PANASQuestions,,,,,,,
RMEBPD Clinical Cog Load (2.13.15) Laptop version (2),2911,1,"<?xml version=""1.0""?>\n<Clock xmlns:dt=""urn:schemas-microsoft-com:datatypes""><Description dt:dt=""string"">E-Prime Primary Realtime Clock</Description><StartTime><Timestamp dt:dt=""int"">0</Timestamp><DateUtc dt:dt=""string"">2018-03-23T19:26:33Z</DateUtc></StartTime><FrequencyChanges><FrequencyChange><Frequency dt:dt=""r8"">2922933</Frequency><Timestamp dt:dt=""r8"">775629214389</Timestamp><Current dt:dt=""r8"">0</Current><DateUtc dt:dt=""string"">2018-03-23T19:26:33Z</DateUtc></FrequencyChange></FrequencyChanges></Clock>\n",RMEBPD Clinical Cog Load (2.13.15) Laptop version (2)-2911-1,60.006,1.0.0.451,Keyboard,1,PW,-1759284922,Full,3.0.3.60,3.0.3.60,3/23/2018,3/23/2018 19:26,15:26:34,3.0.3.43,2,,,,,,,,,?,,2,1,2,,,,,,,,,,,,,Keyboard,2763,295247,,PANAS,,,,,,,,,,BlockList,,,,,,,,,,,,,2,,,,,,,,,,,,,,,PANAS02.bmp,,,,,,,,,,,,2,1,2,Keyboard,4,2109,300543,PANASProc,,,,,,,,,,,,,PANASQuestions,,,,,,,
RMEBPD Clinical Cog Load (2.13.15) Laptop version (2),2911,1,"<?xml version=""1.0""?>\n<Clock xmlns:dt=""urn:schemas-microsoft-com:datatypes""><Description dt:dt=""string"">E-Prime Primary Realtime Clock</Description><StartTime><Timestamp dt:dt=""int"">0</Timestamp><DateUtc dt:dt=""string"">2018-03-23T19:26:33Z</DateUtc></StartTime><FrequencyChanges><FrequencyChange><Frequency dt:dt=""r8"">2922933</Frequency><Timestamp dt:dt=""r8"">775629214389</Timestamp><Current dt:dt=""r8"">0</Current><DateUtc dt:dt=""string"">2018-03-23T19:26:33Z</DateUtc></FrequencyChange></FrequencyChanges></Clock>\n",RMEBPD Clinical Cog Load (2.13.15) Laptop version (2)-2911-1,60.006,1.0.0.451,Keyboard,1,PW,-1759284922,Full,3.0.3.60,3.0.3.60,3/23/2018,3/23/2018 19:26,15:26:34,3.0.3.43,2,,,,,,,,,?,,2,1,2,,,,,,,,,,,,,Keyboard,2763,295247,,PANAS,,,,,,,,,,BlockList,,,,,,,,,,,,,3,,,,,,,,,,,,,,,PANAS03.bmp,,,,,,,,,,,,3,1,3,Keyboard,2,1452,302019,PANASProc,,,,,,,,,,,,,PANASQuestions,,,,,,,
RMEBPD Clinical Cog Load (2.13.15) Laptop version (2),2911,1,"<?xml version=""1.0""?>\n<Clock xmlns:dt=""urn:schemas-microsoft-com:datatypes""><Description dt:dt=""string"">E-Prime Primary Realtime Clock</Description><StartTime><Timestamp dt:dt=""int"">0</Timestamp><DateUtc dt:dt=""string"">2018-03-23T19:26:33Z</DateUtc></StartTime><FrequencyChanges><FrequencyChange><Frequency dt:dt=""r8"">2922933</Frequency><Timestamp dt:dt=""r8"">775629214389</Timestamp><Current dt:dt=""r8"">0</Current><DateUtc dt:dt=""string"">2018-03-23T19:26:33Z</DateUtc></FrequencyChange></FrequencyChanges></Clock>\n",RMEBPD Clinical Cog Load (2.13.15) Laptop version (2)-2911-1,60.006,1.0.0.451,Keyboard,1,PW,-1759284922,Full,3.0.3.60,3.0.3.60,3/23/2018,3/23/2018 19:26,15:26:34,3.0.3.43,2,,,,,,,,,?,,2,1,2,,,,,,,,,,,,,Keyboard,2763,295247,,PANAS,,,,,,,,,,BlockList,,,,,,,,,,,,,4,,,,,,,,,,,,,,,PANAS04.bmp,,,,,,,,,,,,4,1,4,Keyboard,4,1484,303518,PANASProc,,,,,,,,,,,,,PANASQuestions,,,,,,,
RMEBPD Clinical Cog Load (2.13.15) Laptop version (2),2911,1,"<?xml version=""1.0""?>\n<Clock xmlns:dt=""urn:schemas-microsoft-com:datatypes""><Description dt:dt=""string"">E-Prime Primary Realtime Clock</Description><StartTime><Timestamp dt:dt=""int"">0</Timestamp><DateUtc dt:dt=""string"">2018-03-23T19:26:33Z</DateUtc></StartTime><FrequencyChanges><FrequencyChange><Frequency dt:dt=""r8"">2922933</Frequency><Timestamp dt:dt=""r8"">775629214389</Timestamp><Current dt:dt=""r8"">0</Current><DateUtc dt:dt=""string"">2018-03-23T19:26:33Z</DateUtc></FrequencyChange></FrequencyChanges></Clock>\n",RMEBPD Clinical Cog Load (2.13.15) Laptop version (2)-2911-1,60.006,1.0.0.451,Keyboard,1,PW,-1759284922,Full,3.0.3.60,3.0.3.60,3/23/2018,3/23/2018 19:26,15:26:34,3.0.3.43,2,,,,,,,,,?,,2,1,2,,,,,,,,,,,,,Keyboard,2763,295247,,PANAS,,,,,,,,,,BlockList,,,,,,,,,,,,,5,,,,,,,,,,,,,,,PANAS05.bmp,,,,,,,,,,,,5,1,5,Keyboard,2,1627,305160,PANASProc,,,,,,,,,,,,,PANASQuestions,,,,,,,
RMEBPD Clinical Cog Load (2.13.15) Laptop version (2),2911,1,"<?xml version=""1.0""?>\n<Clock xmlns:dt=""urn:schemas-microsoft-com:datatypes""><Description dt:dt=""string"">E-Prime Primary Realtime Clock</Description><StartTime><Timestamp dt:dt=""int"">0</Timestamp><DateUtc dt:dt=""string"">2018-03-23T19:26:33Z</DateUtc></StartTime><FrequencyChanges><FrequencyChange><Frequency dt:dt=""r8"">2922933</Frequency><Timestamp dt:dt=""r8"">775629214389</Timestamp><Current dt:dt=""r8"">0</Current><DateUtc dt:dt=""string"">2018-03-23T19:26:33Z</DateUtc></FrequencyChange></FrequencyChanges></Clock>\n",RMEBPD Clinical Cog Load (2.13.15) Laptop version (2)-2911-1,60.006,1.0.0.451,Keyboard,1,PW,-1759284922,Full,3.0.3.60,3.0.3.60,3/23/2018,3/23/2018 19:26,15:26:34,3.0.3.43,2,,,,,,,,,?,,2,1,2,,,,,,,,,,,,,Keyboard,2763,295247,,PANAS,,,,,,,,,,BlockList,,,,,,,,,,,,,6,,,,,,,,,,,,,,,PANAS06.bmp,,,,,,,,,,,,6,1,6,Keyboard,2,1050,306233,PANASProc,,,,,,,,,,,,,PANASQuestions,,,,,,,
RMEBPD Clinical Cog Load (2.13.15) Laptop version (2),2911,1,"<?xml version=""1.0""?>\n<Clock xmlns:dt=""urn:schemas-microsoft-com:datatypes""><Description dt:dt=""string"">E-Prime Primary Realtime Clock</Description><StartTime><Timestamp dt:dt=""int"">0</Timestamp><DateUtc dt:dt=""string"">2018-03-23T19:26:33Z</DateUtc></StartTime><FrequencyChanges><FrequencyChange><Frequency dt:dt=""r8"">2922933</Frequency><Timestamp dt:dt=""r8"">775629214389</Timestamp><Current dt:dt=""r8"">0</Current><DateUtc dt:dt=""string"">2018-03-23T19:26:33Z</DateUtc></FrequencyChange></FrequencyChanges></Clock>\n",RMEBPD Clinical Cog Load (2.13.15) Laptop version (2)-2911-1,60.006,1.0.0.451,Keyboard,1,PW,-1759284922,Full,3.0.3.60,3.0.3.60,3/23/2018,3/23/2018 19:26,15:26:34,3.0.3.43,2,,,,,,,,,?,,2,1,2,,,,,,,,,,,,,Keyboard,2763,295247,,PANAS,,,,,,,,,,BlockList,,,,,,,,,,,,,7,,,,,,,,,,,,,,,PANAS07.bmp,,,,,,,,,,,,7,1,7,Keyboard,2,953,307203,PANASProc,,,,,,,,,,,,,PANASQuestions,,,,,,,
RMEBPD Clinical Cog Load (2.13.15) Laptop version (2),2911,1,"<?xml version=""1.0""?>\n<Clock xmlns:dt=""urn:schemas-microsoft-com:datatypes""><Description dt:dt=""string"">E-Prime Primary Realtime Clock</Description><StartTime><Timestamp dt:dt=""int"">0</Timestamp><DateUtc dt:dt=""string"">2018-03-23T19:26:33Z</DateUtc></StartTime><FrequencyChanges><FrequencyChange><Frequency dt:dt=""r8"">2922933</Frequency><Timestamp dt:dt=""r8"">775629214389</Timestamp><Current dt:dt=""r8"">0</Current><DateUtc dt:dt=""string"">2018-03-23T19:26:33Z</DateUtc></FrequencyChange></FrequencyChanges></Clock>\n",RMEBPD Clinical Cog Load (2.13.15) Laptop version (2)-2911-1,60.006,1.0.0.451,Keyboard,1,PW,-1759284922,Full,3.0.3.60,3.0.3.60,3/23/2018,3/23/2018 19:26,15:26:34,3.0.3.43,2,,,,,,,,,?,,2,1,2,,,,,,,,,,,,,Keyboard,2763,295247,,PANAS,,,,,,,,,,BlockList,,,,,,,,,,,,,8,,,,,,,,,,,,,,,PANAS08.bmp,,,,,,,,,,,,8,1,8,Keyboard,5,1720,308936,PANASProc,,,,,,,,,,,,,PANASQuestions,,,,,,,
RMEBPD Clinical Cog Load (2.13.15) Laptop version (2),2911,1,"<?xml version=""1.0""?>\n<Clock xmlns:dt=""urn:schemas-microsoft-com:datatypes""><Description dt:dt=""string"">E-Prime Primary Realtime Clock</Description><StartTime><Timestamp dt:dt=""int"">0</Timestamp><DateUtc dt:dt=""string"">2018-03-23T19:26:33Z</DateUtc></StartTime><FrequencyChanges><FrequencyChange><Frequency dt:dt=""r8"">2922933</Frequency><Timestamp dt:dt=""r8"">775629214389</Timestamp><Current dt:dt=""r8"">0</Current><DateUtc dt:dt=""string"">2018-03-23T19:26:33Z</DateUtc></FrequencyChange></FrequencyChanges></Clock>\n",RMEBPD Clinical Cog Load (2.13.15) Laptop version (2)-2911-1,60.006,1.0.0.451,Keyboard,1,PW,-1759284922,Full,3.0.3.60,3.0.3.60,3/23/2018,3/23/2018 19:26,15:26:34,3.0.3.43,2,,,,,,,,,?,,2,1,2,,,,,,,,,,,,,Keyboard,2763,295247,,PANAS,,,,,,,,,,BlockList,,,,,,,,,,,,,9,,,,,,,,,,,,,,,PANAS09.bmp,,,,,,,,,,,,9,1,9,Keyboard,2,2333,311283,PANASProc,,,,,,,,,,,,,PANASQuestions,,,,,,,
RMEBPD Clinical Cog Load (2.13.15) Laptop version (2),2911,1,"<?xml version=""1.0""?>\n<Clock xmlns:dt=""urn:schemas-microsoft-com:datatypes""><Description dt:dt=""string"">E-Prime Primary Realtime Clock</Description><StartTime><Timestamp dt:dt=""int"">0</Timestamp><DateUtc dt:dt=""string"">2018-03-23T19:26:33Z</DateUtc></StartTime><FrequencyChanges><FrequencyChange><Frequency dt:dt=""r8"">2922933</Frequency><Timestamp dt:dt=""r8"">775629214389</Timestamp><Current dt:dt=""r8"">0</Current><DateUtc dt:dt=""string"">2018-03-23T19:26:33Z</DateUtc></FrequencyChange></FrequencyChanges></Clock>\n",RMEBPD Clinical Cog Load (2.13.15) Laptop version (2)-2911-1,60.006,1.0.0.451,Keyboard,1,PW,-1759284922,Full,3.0.3.60,3.0.3.60,3/23/2018,3/23/2018 19:26,15:26:34,3.0.3.43,2,,,,,,,,,?,,2,1,2,,,,,,,,,,,,,Keyboard,2763,295247,,PANAS,,,,,,,,,,BlockList,,,,,,,,,,,,,10,,,,,,,,,,,,,,,PANAS10.bmp,,,,,,,,,,,,10,1,10,Keyboard,2,975,312274,PANASProc,,,,,,,,,,,,,PANASQuestions,,,,,,,
RMEBPD Clinical Cog Load (2.13.15) Laptop version (2),2911,1,"<?xml version=""1.0""?>\n<Clock xmlns:dt=""urn:schemas-microsoft-com:datatypes""><Description dt:dt=""string"">E-Prime Primary Realtime Clock</Description><StartTime><Timestamp dt:dt=""int"">0</Timestamp><DateUtc dt:dt=""string"">2018-03-23T19:26:33Z</DateUtc></StartTime><FrequencyChanges><FrequencyChange><Frequency dt:dt=""r8"">2922933</Frequency><Timestamp dt:dt=""r8"">775629214389</Timestamp><Current dt:dt=""r8"">0</Current><DateUtc dt:dt=""string"">2018-03-23T19:26:33Z</DateUtc></FrequencyChange></FrequencyChanges></Clock>\n",RMEBPD Clinical Cog Load (2.13.15) Laptop version (2)-2911-1,60.006,1.0.0.451,Keyboard,1,PW,-1759284922,Full,3.0.3.60,3.0.3.60,3/23/2018,3/23/2018 19:26,15:26:34,3.0.3.43,2,,,,,,,,,?,,2,1,2,,,,,,,,,,,,,Keyboard,2763,295247,,PANAS,,,,,,,,,,BlockList,,,,,,,,,,,,,11,,,,,,,,,,,,,,,PANAS11.bmp,,,,,,,,,,,,11,1,11,Keyboard,2,1125,313424,PANASProc,,,,,,,,,,,,,PANASQuestions,,,,,,,
RMEBPD Clinical Cog Load (2.13.15) Laptop version (2),2911,1,"<?xml version=""1.0""?>\n<Clock xmlns:dt=""urn:schemas-microsoft-com:datatypes""><Description dt:dt=""string"">E-Prime Primary Realtime Clock</Description><StartTime><Timestamp dt:dt=""int"">0</Timestamp><DateUtc dt:dt=""string"">2018-03-23T19:26:33Z</DateUtc></StartTime><FrequencyChanges><FrequencyChange><Frequency dt:dt=""r8"">2922933</Frequency><Timestamp dt:dt=""r8"">775629214389</Timestamp><Current dt:dt=""r8"">0</Current><DateUtc dt:dt=""string"">2018-03-23T19:26:33Z</DateUtc></FrequencyChange></FrequencyChanges></Clock>\n",RMEBPD Clinical Cog Load (2.13.15) Laptop version (2)-2911-1,60.006,1.0.0.451,Keyboard,1,PW,-1759284922,Full,3.0.3.60,3.0.3.60,3/23/2018,3/23/2018 19:26,15:26:34,3.0.3.43,2,,,,,,,,,?,,2,1,2,,,,,,,,,,,,,Keyboard,2763,295247,,PANAS,,,,,,,,,,BlockList,,,,,,,,,,,,,12,,,,,,,,,,,,,,,PANAS12.bmp,,,,,,,,,,,,12,1,12,Keyboard,5,1865,315314,PANASProc,,,,,,,,,,,,,PANASQuestions,,,,,,,
RMEBPD Clinical Cog Load (2.13.15) Laptop version (2),2911,1,"<?xml version=""1.0""?>\n<Clock xmlns:dt=""urn:schemas-microsoft-com:datatypes""><Description dt:dt=""string"">E-Prime Primary Realtime Clock</Description><StartTime><Timestamp dt:dt=""int"">0</Timestamp><DateUtc dt:dt=""string"">2018-03-23T19:26:33Z</DateUtc></StartTime><FrequencyChanges><FrequencyChange><Frequency dt:dt=""r8"">2922933</Frequency><Timestamp dt:dt=""r8"">775629214389</Timestamp><Current dt:dt=""r8"">0</Current><DateUtc dt:dt=""string"">2018-03-23T19:26:33Z</DateUtc></FrequencyChange></FrequencyChanges></Clock>\n",RMEBPD Clinical Cog Load (2.13.15) Laptop version (2)-2911-1,60.006,1.0.0.451,Keyboard,1,PW,-1759284922,Full,3.0.3.60,3.0.3.60,3/23/2018,3/23/2018 19:26,15:26:34,3.0.3.43,2,,,,,,,,,?,,2,1,2,,,,,,,,,,,,,Keyboard,2763,295247,,PANAS,,,,,,,,,,BlockList,,,,,,,,,,,,,13,,,,,,,,,,,,,,,PANAS13.bmp,,,,,,,,,,,,13,1,13,Keyboard,2,1520,316852,PANASProc,,,,,,,,,,,,,PANASQuestions,,,,,,,
RMEBPD Clinical Cog Load (2.13.15) Laptop version (2),2911,1,"<?xml version=""1.0""?>\n<Clock xmlns:dt=""urn:schemas-microsoft-com:datatypes""><Description dt:dt=""string"">E-Prime Primary Realtime Clock</Description><StartTime><Timestamp dt:dt=""int"">0</Timestamp><DateUtc dt:dt=""string"">2018-03-23T19:26:33Z</DateUtc></StartTime><FrequencyChanges><FrequencyChange><Frequency dt:dt=""r8"">2922933</Frequency><Timestamp dt:dt=""r8"">775629214389</Timestamp><Current dt:dt=""r8"">0</Current><DateUtc dt:dt=""string"">2018-03-23T19:26:33Z</DateUtc></FrequencyChange></FrequencyChanges></Clock>\n",RMEBPD Clinical Cog Load (2.13.15) Laptop version (2)-2911-1,60.006,1.0.0.451,Keyboard,1,PW,-1759284922,Full,3.0.3.60,3.0.3.60,3/23/2018,3/23/2018 19:26,15:26:34,3.0.3.43,2,,,,,,,,,?,,2,1,2,,,,,,,,,,,,,Keyboard,2763,295247,,PANAS,,,,,,,,,,BlockList,,,,,,,,,,,,,14,,,,,,,,,,,,,,,PANAS14.bmp,,,,,,,,,,,,14,1,14,Keyboard,2,800,317665,PANASProc,,,,,,,,,,,,,PANASQuestions,,,,,,,
RMEBPD Clinical Cog Load (2.13.15) Laptop version (2),2911,1,"<?xml version=""1.0""?>\n<Clock xmlns:dt=""urn:schemas-microsoft-com:datatypes""><Description dt:dt=""string"">E-Prime Primary Realtime Clock</Description><StartTime><Timestamp dt:dt=""int"">0</Timestamp><DateUtc dt:dt=""string"">2018-03-23T19:26:33Z</DateUtc></StartTime><FrequencyChanges><FrequencyChange><Frequency dt:dt=""r8"">2922933</Frequency><Timestamp dt:dt=""r8"">775629214389</Timestamp><Current dt:dt=""r8"">0</Current><DateUtc dt:dt=""string"">2018-03-23T19:26:33Z</DateUtc></FrequencyChange></FrequencyChanges></Clock>\n",RMEBPD Clinical Cog Load (2.13.15) Laptop version (2)-2911-1,60.006,1.0.0.451,Keyboard,1,PW,-1759284922,Full,3.0.3.60,3.0.3.60,3/23/2018,3/23/2018 19:26,15:26:34,3.0.3.43,2,,,,,,,,,?,,2,1,2,,,,,,,,,,,,,Keyboard,2763,295247,,PANAS,,,,,,,,,,BlockList,,,,,,,,,,,,,15,,,,,,,,,,,,,,,PANAS15.bmp,,,,,,,,,,,,15,1,15,Keyboard,2,1199,318881,PANASProc,,,,,,,,,,,,,PANASQuestions,,,,,,,
RMEBPD Clinical Cog Load (2.13.15) Laptop version (2),2911,1,"<?xml version=""1.0""?>\n<Clock xmlns:dt=""urn:schemas-microsoft-com:datatypes""><Description dt:dt=""string"">E-Prime Primary Realtime Clock</Description><StartTime><Timestamp dt:dt=""int"">0</Timestamp><DateUtc dt:dt=""string"">2018-03-23T19:26:33Z</DateUtc></StartTime><FrequencyChanges><FrequencyChange><Frequency dt:dt=""r8"">2922933</Frequency><Timestamp dt:dt=""r8"">775629214389</Timestamp><Current dt:dt=""r8"">0</Current><DateUtc dt:dt=""string"">2018-03-23T19:26:33Z</DateUtc></FrequencyChange></FrequencyChanges></Clock>\n",RMEBPD Clinical Cog Load (2.13.15) Laptop version (2)-2911-1,60.006,1.0.0.451,Keyboard,1,PW,-1759284922,Full,3.0.3.60,3.0.3.60,3/23/2018,3/23/2018 19:26,15:26:34,3.0.3.43,2,,,,,,,,,?,,2,1,2,,,,,,,,,,,,,Keyboard,2763,295247,,PANAS,,,,,,,,,,BlockList,,,,,,,,,,,,,16,,,,,,,,,,,,,,,PANAS16.bmp,,,,,,,,,,,,16,1,16,Keyboard,2,1318,320217,PANASProc,,,,,,,,,,,,,PANASQuestions,,,,,,,
RMEBPD Clinical Cog Load (2.13.15) Laptop version (2),2911,1,"<?xml version=""1.0""?>\n<Clock xmlns:dt=""urn:schemas-microsoft-com:datatypes""><Description dt:dt=""string"">E-Prime Primary Realtime Clock</Description><StartTime><Timestamp dt:dt=""int"">0</Timestamp><DateUtc dt:dt=""string"">2018-03-23T19:26:33Z</DateUtc></StartTime><FrequencyChanges><FrequencyChange><Frequency dt:dt=""r8"">2922933</Frequency><Timestamp dt:dt=""r8"">775629214389</Timestamp><Current dt:dt=""r8"">0</Current><DateUtc dt:dt=""string"">2018-03-23T19:26:33Z</DateUtc></FrequencyChange></FrequencyChanges></Clock>\n",RMEBPD Clinical Cog Load (2.13.15) Laptop version (2)-2911-1,60.006,1.0.0.451,Keyboard,1,PW,-1759284922,Full,3.0.3.60,3.0.3.60,3/23/2018,3/23/2018 19:26,15:26:34,3.0.3.43,2,,,,,,,,,?,,2,1,2,,,,,,,,,,,,,Keyboard,2763,295247,,PANAS,,,,,,,,,,BlockList,,,,,,,,,,,,,17,,,,,,,,,,,,,,,PANAS17.bmp,,,,,,,,,,,,17,1,17,Keyboard,5,2980,323212,PANASProc,,,,,,,,,,,,,PANASQuestions,,,,,,,
RMEBPD Clinical Cog Load (2.13.15) Laptop version (2),2911,1,"<?xml version=""1.0""?>\n<Clock xmlns:dt=""urn:schemas-microsoft-com:datatypes""><Description dt:dt=""string"">E-Prime Primary Realtime Clock</Description><StartTime><Timestamp dt:dt=""int"">0</Timestamp><DateUtc dt:dt=""string"">2018-03-23T19:26:33Z</DateUtc></StartTime><FrequencyChanges><FrequencyChange><Frequency dt:dt=""r8"">2922933</Frequency><Timestamp dt:dt=""r8"">775629214389</Timestamp><Current dt:dt=""r8"">0</Current><DateUtc dt:dt=""string"">2018-03-23T19:26:33Z</DateUtc></FrequencyChange></FrequencyChanges></Clock>\n",RMEBPD Clinical Cog Load (2.13.15) Laptop version (2)-2911-1,60.006,1.0.0.451,Keyboard,1,PW,-1759284922,Full,3.0.3.60,3.0.3.60,3/23/2018,3/23/2018 19:26,15:26:34,3.0.3.43,2,,,,,,,,,?,,2,1,2,,,,,,,,,,,,,Keyboard,2763,295247,,PANAS,,,,,,,,,,BlockList,,,,,,,,,,,,,18,,,,,,,,,,,,,,,PANAS18.bmp,,,,,,,,,,,,18,1,18,Keyboard,2,1136,324368,PANASProc,,,,,,,,,,,,,PANASQuestions,,,,,,,
RMEBPD Clinical Cog Load (2.13.15) Laptop version (2),2911,1,"<?xml version=""1.0""?>\n<Clock xmlns:dt=""urn:schemas-microsoft-com:datatypes""><Description dt:dt=""string"">E-Prime Primary Realtime Clock</Description><StartTime><Timestamp dt:dt=""int"">0</Timestamp><DateUtc dt:dt=""string"">2018-03-23T19:26:33Z</DateUtc></StartTime><FrequencyChanges><FrequencyChange><Frequency dt:dt=""r8"">2922933</Frequency><Timestamp dt:dt=""r8"">775629214389</Timestamp><Current dt:dt=""r8"">0</Current><DateUtc dt:dt=""string"">2018-03-23T19:26:33Z</DateUtc></FrequencyChange></FrequencyChanges></Clock>\n",RMEBPD Clinical Cog Load (2.13.15) Laptop version (2)-2911-1,60.006,1.0.0.451,Keyboard,1,PW,-1759284922,Full,3.0.3.60,3.0.3.60,3/23/2018,3/23/2018 19:26,15:26:34,3.0.3.43,2,,,,,,,,,?,,2,1,2,,,,,,,,,,,,,Keyboard,2763,295247,,PANAS,,,,,,,,,,BlockList,,,,,,,,,,,,,19,,,,,,,,,,,,,,,PANAS19.bmp,,,,,,,,,,,,19,1,19,Keyboard,2,822,325203,PANASProc,,,,,,,,,,,,,PANASQuestions,,,,,,,
RMEBPD Clinical Cog Load (2.13.15) Laptop version (2),2911,1,"<?xml version=""1.0""?>\n<Clock xmlns:dt=""urn:schemas-microsoft-com:datatypes""><Description dt:dt=""string"">E-Prime Primary Realtime Clock</Description><StartTime><Timestamp dt:dt=""int"">0</Timestamp><DateUtc dt:dt=""string"">2018-03-23T19:26:33Z</DateUtc></StartTime><FrequencyChanges><FrequencyChange><Frequency dt:dt=""r8"">2922933</Frequency><Timestamp dt:dt=""r8"">775629214389</Timestamp><Current dt:dt=""r8"">0</Current><DateUtc dt:dt=""string"">2018-03-23T19:26:33Z</DateUtc></FrequencyChange></FrequencyChanges></Clock>\n",RMEBPD Clinical Cog Load (2.13.15) Laptop version (2)-2911-1,60.006,1.0.0.451,Keyboard,1,PW,-1759284922,Full,3.0.3.60,3.0.3.60,3/23/2018,3/23/2018 19:26,15:26:34,3.0.3.43,2,,,,,,,,,?,,2,1,2,,,,,,,,,,,,,Keyboard,2763,295247,,PANAS,,,,,,,,,,BlockList,,,,,,,,,,,,,20,,,,,,,,,,,,,,,PANAS20.bmp,,,,,,,,,,,,20,1,20,Keyboard,2,669,325900,PANASProc,,,,,,,,,,,,,PANASQuestions,,,,,,,
RMEBPD Clinical Cog Load (2.13.15) Laptop version (2),2911,1,"<?xml version=""1.0""?>\n<Clock xmlns:dt=""urn:schemas-microsoft-com:datatypes""><Description dt:dt=""string"">E-Prime Primary Realtime Clock</Description><StartTime><Timestamp dt:dt=""int"">0</Timestamp><DateUtc dt:dt=""string"">2018-03-23T19:26:33Z</DateUtc></StartTime><FrequencyChanges><FrequencyChange><Frequency dt:dt=""r8"">2922933</Frequency><Timestamp dt:dt=""r8"">775629214389</Timestamp><Current dt:dt=""r8"">0</Current><DateUtc dt:dt=""string"">2018-03-23T19:26:33Z</DateUtc></FrequencyChange></FrequencyChanges></Clock>\n",RMEBPD Clinical Cog Load (2.13.15) Laptop version (2)-2911-1,60.006,1.0.0.451,Keyboard,1,PW,-1759284922,Full,3.0.3.60,3.0.3.60,3/23/2018,3/23/2018 19:26,15:26:34,3.0.3.43,2,,,,,,,,,?,,2,1,2,,,,,,,,,,,,,Keyboard,2763,295247,,PANAS,,,,,,,,,,BlockList,,,,,,,,,,,,,21,,,,,,,,,,,,,,,PANAS21.bmp,,,,,,,,,,,,21,1,21,Keyboard,1,3374,329289,PANASProc,,,,,,,,,,,,,PANASQuestions,,,,,,,
RMEBPD Clinical Cog Load (2.13.15) Laptop version (2),2911,1,"<?xml version=""1.0""?>\n<Clock xmlns:dt=""urn:schemas-microsoft-com:datatypes""><Description dt:dt=""string"">E-Prime Primary Realtime Clock</Description><StartTime><Timestamp dt:dt=""int"">0</Timestamp><DateUtc dt:dt=""string"">2018-03-23T19:26:33Z</DateUtc></StartTime><FrequencyChanges><FrequencyChange><Frequency dt:dt=""r8"">2922933</Frequency><Timestamp dt:dt=""r8"">775629214389</Timestamp><Current dt:dt=""r8"">0</Current><DateUtc dt:dt=""string"">2018-03-23T19:26:33Z</DateUtc></FrequencyChange></FrequencyChanges></Clock>\n",RMEBPD Clinical Cog Load (2.13.15) Laptop version (2)-2911-1,60.006,1.0.0.451,Keyboard,1,PW,-1759284922,Full,3.0.3.60,3.0.3.60,3/23/2018,3/23/2018 19:26,15:26:34,3.0.3.43,2,,,,,,,,,?,,2,1,2,,,,,,,,,,,,,Keyboard,2763,295247,,PANAS,,,,,,,,,,BlockList,,,,,,,,,,,,,22,,,,,,,,,,,,,,,PANAS22.bmp,,,,,,,,,,,,22,1,22,Keyboard,5,1972,331286,PANASProc,,,,,,,,,,,,,PANASQuestions,,,,,,,
RMEBPD Clinical Cog Load (2.13.15) Laptop version (2),2911,1,"<?xml version=""1.0""?>\n<Clock xmlns:dt=""urn:schemas-microsoft-com:datatypes""><Description dt:dt=""string"">E-Prime Primary Realtime Clock</Description><StartTime><Timestamp dt:dt=""int"">0</Timestamp><DateUtc dt:dt=""string"">2018-03-23T19:26:33Z</DateUtc></StartTime><FrequencyChanges><FrequencyChange><Frequency dt:dt=""r8"">2922933</Frequency><Timestamp dt:dt=""r8"">775629214389</Timestamp><Current dt:dt=""r8"">0</Current><DateUtc dt:dt=""string"">2018-03-23T19:26:33Z</DateUtc></FrequencyChange></FrequencyChanges></Clock>\n",RMEBPD Clinical Cog Load (2.13.15) Laptop version (2)-2911-1,60.006,1.0.0.451,Keyboard,1,PW,-1759284922,Full,3.0.3.60,3.0.3.60,3/23/2018,3/23/2018 19:26,15:26:34,3.0.3.43,3,Keyboard,1,2543,838527,Keyboard,1,2608,835959,?,Keyboard,3,1,3,,Keyboard,Keyboard,1,1,Keyboard,-999999,22,347796,1,1726,349522,,,,Keyboard,RME,0,1,Keyboard,-999999,16,343646,4,4128,347774,BlockList,0,,Keyboard,-999999,24,838551,{TAB},2442,840993,,,,1,,,,,,,,,,,,,1,1,15 copy.bmp,1,1,Keyboard,-999999,12,362528,1,1173,363701,Fr26Km#,r,,,,,,,,RMEProc,1,1,Keyboard,-999999,16,357128,1,5388,362516,15,1,1,RMETrialList,,,,,,,
RMEBPD Clinical Cog Load (2.13.15) Laptop version (2),2911,1,"<?xml version=""1.0""?>\n<Clock xmlns:dt=""urn:schemas-microsoft-com:datatypes""><Description dt:dt=""string"">E-Prime Primary Realtime Clock</Description><StartTime><Timestamp dt:dt=""int"">0</Timestamp><DateUtc dt:dt=""string"">2018-03-23T19:26:33Z</DateUtc></StartTime><FrequencyChanges><FrequencyChange><Frequency dt:dt=""r8"">2922933</Frequency><Timestamp dt:dt=""r8"">775629214389</Timestamp><Current dt:dt=""r8"">0</Current><DateUtc dt:dt=""string"">2018-03-23T19:26:33Z</DateUtc></FrequencyChange></FrequencyChanges></Clock>\n",RMEBPD Clinical Cog Load (2.13.15) Laptop version (2)-2911-1,60.006,1.0.0.451,Keyboard,1,PW,-1759284922,Full,3.0.3.60,3.0.3.60,3/23/2018,3/23/2018 19:26,15:26:34,3.0.3.43,3,Keyboard,1,2543,838527,Keyboard,1,2608,835959,?,Keyboard,3,1,3,,Keyboard,Keyboard,1,1,Keyboard,-999999,22,347796,1,1726,349522,,,,Keyboard,RME,0,1,Keyboard,-999999,16,343646,4,4128,347774,BlockList,0,,Keyboard,-999999,24,838551,{TAB},2442,840993,,,,2,,,,,,,,,,,,,3,1,11 copy.bmp,1,1,Keyboard,-999999,17,374044,1,1198,375242,pD8#12b,p,,,,,,,,RMEProc,1,3,Keyboard,-999999,16,368727,3,5300,374027,11,1,2,RMETrialList,,,,,,,
RMEBPD Clinical Cog Load (2.13.15) Laptop version (2),2911,1,"<?xml version=""1.0""?>\n<Clock xmlns:dt=""urn:schemas-microsoft-com:datatypes""><Description dt:dt=""string"">E-Prime Primary Realtime Clock</Description><StartTime><Timestamp dt:dt=""int"">0</Timestamp><DateUtc dt:dt=""string"">2018-03-23T19:26:33Z</DateUtc></StartTime><FrequencyChanges><FrequencyChange><Frequency dt:dt=""r8"">2922933</Frequency><Timestamp dt:dt=""r8"">775629214389</Timestamp><Current dt:dt=""r8"">0</Current><DateUtc dt:dt=""string"">2018-03-23T19:26:33Z</DateUtc></FrequencyChange></FrequencyChanges></Clock>\n",RMEBPD Clinical Cog Load (2.13.15) Laptop version (2)-2911-1,60.006,1.0.0.451,Keyboard,1,PW,-1759284922,Full,3.0.3.60,3.0.3.60,3/23/2018,3/23/2018 19:26,15:26:34,3.0.3.43,3,Keyboard,1,2543,838527,Keyboard,1,2608,835959,?,Keyboard,3,1,3,,Keyboard,Keyboard,1,1,Keyboard,-999999,22,347796,1,1726,349522,,,,Keyboard,RME,0,1,Keyboard,-999999,16,343646,4,4128,347774,BlockList,0,,Keyboard,-999999,24,838551,{TAB},2442,840993,,,,3,,,,,,,,,,,,,3,1,23 copy.bmp,1,1,Keyboard,-999999,17,385593,1,1913,387506,bQ58*tY,*,,,,,,,,RMEProc,1,3,Keyboard,-999999,16,380276,3,5300,385576,23,1,3,RMETrialList,,,,,,,
RMEBPD Clinical Cog Load (2.13.15) Laptop version (2),2911,1,"<?xml version=""1.0""?>\n<Clock xmlns:dt=""urn:schemas-microsoft-com:datatypes""><Description dt:dt=""string"">E-Prime Primary Realtime Clock</Description><StartTime><Timestamp dt:dt=""int"">0</Timestamp><DateUtc dt:dt=""string"">2018-03-23T19:26:33Z</DateUtc></StartTime><FrequencyChanges><FrequencyChange><Frequency dt:dt=""r8"">2922933</Frequency><Timestamp dt:dt=""r8"">775629214389</Timestamp><Current dt:dt=""r8"">0</Current><DateUtc dt:dt=""string"">2018-03-23T19:26:33Z</DateUtc></FrequencyChange></FrequencyChanges></Clock>\n",RMEBPD Clinical Cog Load (2.13.15) Laptop version (2)-2911-1,60.006,1.0.0.451,Keyboard,1,PW,-1759284922,Full,3.0.3.60,3.0.3.60,3/23/2018,3/23/2018 19:26,15:26:34,3.0.3.43,3,Keyboard,1,2543,838527,Keyboard,1,2608,835959,?,Keyboard,3,1,3,,Keyboard,Keyboard,1,1,Keyboard,-999999,22,347796,1,1726,349522,,,,Keyboard,RME,0,1,Keyboard,-999999,16,343646,4,4128,347774,BlockList,0,,Keyboard,-999999,24,838551,{TAB},2442,840993,,,,4,,,,,,,,,,,,,4,1,09 copy.bmp,1,1,Keyboard,-999999,10,398408,1,2802,401210,85tn3#1d,#,,,,,,,,RMEProc,0,4,Keyboard,-999999,16,392542,1,5856,398398,9,1,4,RMETrialList,,,,,,,
RMEBPD Clinical Cog Load (2.13.15) Laptop version (2),2911,1,"<?xml version=""1.0""?>\n<Clock xmlns:dt=""urn:schemas-microsoft-com:datatypes""><Description dt:dt=""string"">E-Prime Primary Realtime Clock</Description><StartTime><Timestamp dt:dt=""int"">0</Timestamp><DateUtc dt:dt=""string"">2018-03-23T19:26:33Z</DateUtc></StartTime><FrequencyChanges><FrequencyChange><Frequency dt:dt=""r8"">2922933</Frequency><Timestamp dt:dt=""r8"">775629214389</Timestamp><Current dt:dt=""r8"">0</Current><DateUtc dt:dt=""string"">2018-03-23T19:26:33Z</DateUtc></FrequencyChange></FrequencyChanges></Clock>\n",RMEBPD Clinical Cog Load (2.13.15) Laptop version (2)-2911-1,60.006,1.0.0.451,Keyboard,1,PW,-1759284922,Full,3.0.3.60,3.0.3.60,3/23/2018,3/23/2018 19:26,15:26:34,3.0.3.43,3,Keyboard,1,2543,838527,Keyboard,1,2608,835959,?,Keyboard,3,1,3,,Keyboard,Keyboard,1,1,Keyboard,-999999,22,347796,1,1726,349522,,,,Keyboard,RME,0,1,Keyboard,-999999,16,343646,4,4128,347774,BlockList,0,,Keyboard,-999999,24,838551,{TAB},2442,840993,,,,5,,,,,,,,,,,,,3,1,05 copy.bmp,1,1,Keyboard,-999999,11,411407,1,1224,412631,#pC53Wz,p,,,,,,,,RMEProc,0,3,Keyboard,-999999,17,406241,2,5155,411396,5,1,5,RMETrialList,,,,,,,
RMEBPD Clinical Cog Load (2.13.15) Laptop version (2),2911,1,"<?xml version=""1.0""?>\n<Clock xmlns:dt=""urn:schemas-microsoft-com:datatypes""><Description dt:dt=""string"">E-Prime Primary Realtime Clock</Description><StartTime><Timestamp dt:dt=""int"">0</Timestamp><DateUtc dt:dt=""string"">2018-03-23T19:26:33Z</DateUtc></StartTime><FrequencyChanges><FrequencyChange><Frequency dt:dt=""r8"">2922933</Frequency><Timestamp dt:dt=""r8"">775629214389</Timestamp><Current dt:dt=""r8"">0</Current><DateUtc dt:dt=""string"">2018-03-23T19:26:33Z</DateUtc></FrequencyChange></FrequencyChanges></Clock>\n",RMEBPD Clinical Cog Load (2.13.15) Laptop version (2)-2911-1,60.006,1.0.0.451,Keyboard,1,PW,-1759284922,Full,3.0.3.60,3.0.3.60,3/23/2018,3/23/2018 19:26,15:26:34,3.0.3.43,3,Keyboard,1,2543,838527,Keyboard,1,2608,835959,?,Keyboard,3,1,3,,Keyboard,Keyboard,1,1,Keyboard,-999999,22,347796,1,1726,349522,,,,Keyboard,RME,0,1,Keyboard,-999999,16,343646,4,4128,347774,BlockList,0,,Keyboard,-999999,24,838551,{TAB},2442,840993,,,,6,,,,,,,,,,,,,2,2,06 copy.bmp,1,2,Keyboard,-999999,19,422906,2,1357,424263,n63#m1Q,G,,,,,,,,RMEProc,1,2,Keyboard,-999999,16,417656,2,5231,422887,6,1,6,RMETrialList,,,,,,,
RMEBPD Clinical Cog Load (2.13.15) Laptop version (2),2911,1,"<?xml version=""1.0""?>\n<Clock xmlns:dt=""urn:schemas-microsoft-com:datatypes""><Description dt:dt=""string"">E-Prime Primary Realtime Clock</Description><StartTime><Timestamp dt:dt=""int"">0</Timestamp><DateUtc dt:dt=""string"">2018-03-23T19:26:33Z</DateUtc></StartTime><FrequencyChanges><FrequencyChange><Frequency dt:dt=""r8"">2922933</Frequency><Timestamp dt:dt=""r8"">775629214389</Timestamp><Current dt:dt=""r8"">0</Current><DateUtc dt:dt=""string"">2018-03-23T19:26:33Z</DateUtc></FrequencyChange></FrequencyChanges></Clock>\n",RMEBPD Clinical Cog Load (2.13.15) Laptop version (2)-2911-1,60.006,1.0.0.451,Keyboard,1,PW,-1759284922,Full,3.0.3.60,3.0.3.60,3/23/2018,3/23/2018 19:26,15:26:34,3.0.3.43,3,Keyboard,1,2543,838527,Keyboard,1,2608,835959,?,Keyboard,3,1,3,,Keyboard,Keyboard,1,1,Keyboard,-999999,22,347796,1,1726,349522,,,,Keyboard,RME,0,1,Keyboard,-999999,16,343646,4,4128,347774,BlockList,0,,Keyboard,-999999,24,838551,{TAB},2442,840993,,,,7,,,,,,,,,,,,,3,2,34 copy.bmp,1,2,Keyboard,-999999,10,434021,2,2174,436195,K#5Nt98,f,,,,,,,,RMEProc,1,3,Keyboard,-999999,16,429305,3,4706,434011,34,1,7,RMETrialList,,,,,,,
RMEBPD Clinical Cog Load (2.13.15) Laptop version (2),2911,1,"<?xml version=""1.0""?>\n<Clock xmlns:dt=""urn:schemas-microsoft-com:datatypes""><Description dt:dt=""string"">E-Prime Primary Realtime Clock</Description><StartTime><Timestamp dt:dt=""int"">0</Timestamp><DateUtc dt:dt=""string"">2018-03-23T19:26:33Z</DateUtc></StartTime><FrequencyChanges><FrequencyChange><Frequency dt:dt=""r8"">2922933</Frequency><Timestamp dt:dt=""r8"">775629214389</Timestamp><Current dt:dt=""r8"">0</Current><DateUtc dt:dt=""string"">2018-03-23T19:26:33Z</DateUtc></FrequencyChange></FrequencyChanges></Clock>\n",RMEBPD Clinical Cog Load (2.13.15) Laptop version (2)-2911-1,60.006,1.0.0.451,Keyboard,1,PW,-1759284922,Full,3.0.3.60,3.0.3.60,3/23/2018,3/23/2018 19:26,15:26:34,3.0.3.43,3,Keyboard,1,2543,838527,Keyboard,1,2608,835959,?,Keyboard,3,1,3,,Keyboard,Keyboard,1,1,Keyboard,-999999,22,347796,1,1726,349522,,,,Keyboard,RME,0,1,Keyboard,-999999,16,343646,4,4128,347774,BlockList,0,,Keyboard,-999999,24,838551,{TAB},2442,840993,,,,8,,,,,,,,,,,,,1,2,24 copy.bmp,1,2,Keyboard,-999999,17,444420,2,1822,446242,*9Xha64,5,,,,,,,,RMEProc,1,1,Keyboard,-999999,16,441221,1,3182,444403,24,1,8,RMETrialList,,,,,,,
RMEBPD Clinical Cog Load (2.13.15) Laptop version (2),2911,1,"<?xml version=""1.0""?>\n<Clock xmlns:dt=""urn:schemas-microsoft-com:datatypes""><Description dt:dt=""string"">E-Prime Primary Realtime Clock</Description><StartTime><Timestamp dt:dt=""int"">0</Timestamp><DateUtc dt:dt=""string"">2018-03-23T19:26:33Z</DateUtc></StartTime><FrequencyChanges><FrequencyChange><Frequency dt:dt=""r8"">2922933</Frequency><Timestamp dt:dt=""r8"">775629214389</Timestamp><Current dt:dt=""r8"">0</Current><DateUtc dt:dt=""string"">2018-03-23T19:26:33Z</DateUtc></FrequencyChange></FrequencyChanges></Clock>\n",RMEBPD Clinical Cog Load (2.13.15) Laptop version (2)-2911-1,60.006,1.0.0.451,Keyboard,1,PW,-1759284922,Full,3.0.3.60,3.0.3.60,3/23/2018,3/23/2018 19:26,15:26:34,3.0.3.43,3,Keyboard,1,2543,838527,Keyboard,1,2608,835959,?,Keyboard,3,1,3,,Keyboard,Keyboard,1,1,Keyboard,-999999,22,347796,1,1726,349522,,,,Keyboard,RME,0,1,Keyboard,-999999,16,343646,4,4128,347774,BlockList,0,,Keyboard,-999999,24,838551,{TAB},2442,840993,,,,9,,,,,,,,,,,,,1,2,18 copy.bmp,1,2,Keyboard,-999999,25,455903,2,2127,458030,bF6n*q8,e,,,,,,,,RMEProc,1,1,Keyboard,-999999,16,451270,1,4608,455878,18,1,9,RMETrialList,,,,,,,
RMEBPD Clinical Cog Load (2.13.15) Laptop version (2),2911,1,"<?xml version=""1.0""?>\n<Clock xmlns:dt=""urn:schemas-microsoft-com:datatypes""><Description dt:dt=""string"">E-Prime Primary Realtime Clock</Description><StartTime><Timestamp dt:dt=""int"">0</Timestamp><DateUtc dt:dt=""string"">2018-03-23T19:26:33Z</DateUtc></StartTime><FrequencyChanges><FrequencyChange><Frequency dt:dt=""r8"">2922933</Frequency><Timestamp dt:dt=""r8"">775629214389</Timestamp><Current dt:dt=""r8"">0</Current><DateUtc dt:dt=""string"">2018-03-23T19:26:33Z</DateUtc></FrequencyChange></FrequencyChanges></Clock>\n",RMEBPD Clinical Cog Load (2.13.15) Laptop version (2)-2911-1,60.006,1.0.0.451,Keyboard,1,PW,-1759284922,Full,3.0.3.60,3.0.3.60,3/23/2018,3/23/2018 19:26,15:26:34,3.0.3.43,3,Keyboard,1,2543,838527,Keyboard,1,2608,835959,?,Keyboard,3,1,3,,Keyboard,Keyboard,1,1,Keyboard,-999999,22,347796,1,1726,349522,,,,Keyboard,RME,0,1,Keyboard,-999999,16,343646,4,4128,347774,BlockList,0,,Keyboard,-999999,24,838551,{TAB},2442,840993,,,,10,,,,,,,,,,,,,2,1,21 copy.bmp,1,1,Keyboard,-999999,18,468135,1,1923,470058,H#6s53Q,6,,,,,,,,RMEProc,1,2,Keyboard,-999999,16,463069,2,5048,468117,21,1,10,RMETrialList,,,,,,,
RMEBPD Clinical Cog Load (2.13.15) Laptop version (2),2911,1,"<?xml version=""1.0""?>\n<Clock xmlns:dt=""urn:schemas-microsoft-com:datatypes""><Description dt:dt=""string"">E-Prime Primary Realtime Clock</Description><StartTime><Timestamp dt:dt=""int"">0</Timestamp><DateUtc dt:dt=""string"">2018-03-23T19:26:33Z</DateUtc></StartTime><FrequencyChanges><FrequencyChange><Frequency dt:dt=""r8"">2922933</Frequency><Timestamp dt:dt=""r8"">775629214389</Timestamp><Current dt:dt=""r8"">0</Current><DateUtc dt:dt=""string"">2018-03-23T19:26:33Z</DateUtc></FrequencyChange></FrequencyChanges></Clock>\n",RMEBPD Clinical Cog Load (2.13.15) Laptop version (2)-2911-1,60.006,1.0.0.451,Keyboard,1,PW,-1759284922,Full,3.0.3.60,3.0.3.60,3/23/2018,3/23/2018 19:26,15:26:34,3.0.3.43,3,Keyboard,1,2543,838527,Keyboard,1,2608,835959,?,Keyboard,3,1,3,,Keyboard,Keyboard,1,1,Keyboard,-999999,22,347796,1,1726,349522,,,,Keyboard,RME,0,1,Keyboard,-999999,16,343646,4,4128,347774,BlockList,0,,Keyboard,-999999,24,838551,{TAB},2442,840993,,,,11,,,,,,,,,,,,,2,2,04 copy.bmp,1,2,Keyboard,-999999,21,482717,2,2646,485363,89F5*qp,6,,,,,,,,RMEProc,1,2,Keyboard,-999999,16,475084,2,7611,482695,4,1,11,RMETrialList,,,,,,,
RMEBPD Clinical Cog Load (2.13.15) Laptop version (2),2911,1,"<?xml version=""1.0""?>\n<Clock xmlns:dt=""urn:schemas-microsoft-com:datatypes""><Description dt:dt=""string"">E-Prime Primary Realtime Clock</Description><StartTime><Timestamp dt:dt=""int"">0</Timestamp><DateUtc dt:dt=""string"">2018-03-23T19:26:33Z</DateUtc></StartTime><FrequencyChanges><FrequencyChange><Frequency dt:dt=""r8"">2922933</Frequency><Timestamp dt:dt=""r8"">775629214389</Timestamp><Current dt:dt=""r8"">0</Current><DateUtc dt:dt=""string"">2018-03-23T19:26:33Z</DateUtc></FrequencyChange></FrequencyChanges></Clock>\n",RMEBPD Clinical Cog Load (2.13.15) Laptop version (2)-2911-1,60.006,1.0.0.451,Keyboard,1,PW,-1759284922,Full,3.0.3.60,3.0.3.60,3/23/2018,3/23/2018 19:26,15:26:34,3.0.3.43,3,Keyboard,1,2543,838527,Keyboard,1,2608,835959,?,Keyboard,3,1,3,,Keyboard,Keyboard,1,1,Keyboard,-999999,22,347796,1,1726,349522,,,,Keyboard,RME,0,1,Keyboard,-999999,16,343646,4,4128,347774,BlockList,0,,Keyboard,-999999,24,838551,{TAB},2442,840993,,,,12,,,,,,,,,,,,,4,2,14 copy.bmp,1,2,Keyboard,-999999,17,496982,2,1679,498661,Ex7J2b#,V,,,,,,,,RMEProc,1,4,Keyboard,-999999,17,490400,4,6565,496965,14,1,12,RMETrialList,,,,,,,
RMEBPD Clinical Cog Load (2.13.15) Laptop version (2),2911,1,"<?xml version=""1.0""?>\n<Clock xmlns:dt=""urn:schemas-microsoft-com:datatypes""><Description dt:dt=""string"">E-Prime Primary Realtime Clock</Description><StartTime><Timestamp dt:dt=""int"">0</Timestamp><DateUtc dt:dt=""string"">2018-03-23T19:26:33Z</DateUtc></StartTime><FrequencyChanges><FrequencyChange><Frequency dt:dt=""r8"">2922933</Frequency><Timestamp dt:dt=""r8"">775629214389</Timestamp><Current dt:dt=""r8"">0</Current><DateUtc dt:dt=""string"">2018-03-23T19:26:33Z</DateUtc></FrequencyChange></FrequencyChanges></Clock>\n",RMEBPD Clinical Cog Load (2.13.15) Laptop version (2)-2911-1,60.006,1.0.0.451,Keyboard,1,PW,-1759284922,Full,3.0.3.60,3.0.3.60,3/23/2018,3/23/2018 19:26,15:26:34,3.0.3.43,3,Keyboard,1,2543,838527,Keyboard,1,2608,835959,?,Keyboard,3,1,3,,Keyboard,Keyboard,1,1,Keyboard,-999999,22,347796,1,1726,349522,,,,Keyboard,RME,0,1,Keyboard,-999999,16,343646,4,4128,347774,BlockList,0,,Keyboard,-999999,24,838551,{TAB},2442,840993,,,,13,,,,,,,,,,,,,1,2,28 copy.bmp,1,2,Keyboard,-999999,11,508348,2,3007,511355,JH*tm73,N,,,,,,,,RMEProc,1,1,Keyboard,-999999,16,503698,1,4639,508337,28,1,13,RMETrialList,,,,,,,
RMEBPD Clinical Cog Load (2.13.15) Laptop version (2),2911,1,"<?xml version=""1.0""?>\n<Clock xmlns:dt=""urn:schemas-microsoft-com:datatypes""><Description dt:dt=""string"">E-Prime Primary Realtime Clock</Description><StartTime><Timestamp dt:dt=""int"">0</Timestamp><DateUtc dt:dt=""string"">2018-03-23T19:26:33Z</DateUtc></StartTime><FrequencyChanges><FrequencyChange><Frequency dt:dt=""r8"">2922933</Frequency><Timestamp dt:dt=""r8"">775629214389</Timestamp><Current dt:dt=""r8"">0</Current><DateUtc dt:dt=""string"">2018-03-23T19:26:33Z</DateUtc></FrequencyChange></FrequencyChanges></Clock>\n",RMEBPD Clinical Cog Load (2.13.15) Laptop version (2)-2911-1,60.006,1.0.0.451,Keyboard,1,PW,-1759284922,Full,3.0.3.60,3.0.3.60,3/23/2018,3/23/2018 19:26,15:26:34,3.0.3.43,3,Keyboard,1,2543,838527,Keyboard,1,2608,835959,?,Keyboard,3,1,3,,Keyboard,Keyboard,1,1,Keyboard,-999999,22,347796,1,1726,349522,,,,Keyboard,RME,0,1,Keyboard,-999999,16,343646,4,4128,347774,BlockList,0,,Keyboard,-999999,24,838551,{TAB},2442,840993,,,,14,,,,,,,,,,,,,4,1,33 copy.bmp,0,1,Keyboard,-999999,12,524113,2,3746,527859,Hj*42w9,9,,,,,,,,RMEProc,1,4,Keyboard,-999999,16,516380,4,7721,524101,33,1,14,RMETrialList,,,,,,,
RMEBPD Clinical Cog Load (2.13.15) Laptop version (2),2911,1,"<?xml version=""1.0""?>\n<Clock xmlns:dt=""urn:schemas-microsoft-com:datatypes""><Description dt:dt=""string"">E-Prime Primary Realtime Clock</Description><StartTime><Timestamp dt:dt=""int"">0</Timestamp><DateUtc dt:dt=""string"">2018-03-23T19:26:33Z</DateUtc></StartTime><FrequencyChanges><FrequencyChange><Frequency dt:dt=""r8"">2922933</Frequency><Timestamp dt:dt=""r8"">775629214389</Timestamp><Current dt:dt=""r8"">0</Current><DateUtc dt:dt=""string"">2018-03-23T19:26:33Z</DateUtc></FrequencyChange></FrequencyChanges></Clock>\n",RMEBPD Clinical Cog Load (2.13.15) Laptop version (2)-2911-1,60.006,1.0.0.451,Keyboard,1,PW,-1759284922,Full,3.0.3.60,3.0.3.60,3/23/2018,3/23/2018 19:26,15:26:34,3.0.3.43,3,Keyboard,1,2543,838527,Keyboard,1,2608,835959,?,Keyboard,3,1,3,,Keyboard,Keyboard,1,1,Keyboard,-999999,22,347796,1,1726,349522,,,,Keyboard,RME,0,1,Keyboard,-999999,16,343646,4,4128,347774,BlockList,0,,Keyboard,-999999,24,838551,{TAB},2442,840993,,,,15,,,,,,,,,,,,,3,1,03 copy.bmp,1,1,Keyboard,-999999,22,544861,1,1406,546267,*y6G93w,*,,,,,,,,RMEProc,0,3,Keyboard,-999999,17,532896,1,11943,544839,3,1,15,RMETrialList,,,,,,,
RMEBPD Clinical Cog Load (2.13.15) Laptop version (2),2911,1,"<?xml version=""1.0""?>\n<Clock xmlns:dt=""urn:schemas-microsoft-com:datatypes""><Description dt:dt=""string"">E-Prime Primary Realtime Clock</Description><StartTime><Timestamp dt:dt=""int"">0</Timestamp><DateUtc dt:dt=""string"">2018-03-23T19:26:33Z</DateUtc></StartTime><FrequencyChanges><FrequencyChange><Frequency dt:dt=""r8"">2922933</Frequency><Timestamp dt:dt=""r8"">775629214389</Timestamp><Current dt:dt=""r8"">0</Current><DateUtc dt:dt=""string"">2018-03-23T19:26:33Z</DateUtc></FrequencyChange></FrequencyChanges></Clock>\n",RMEBPD Clinical Cog Load (2.13.15) Laptop version (2)-2911-1,60.006,1.0.0.451,Keyboard,1,PW,-1759284922,Full,3.0.3.60,3.0.3.60,3/23/2018,3/23/2018 19:26,15:26:34,3.0.3.43,3,Keyboard,1,2543,838527,Keyboard,1,2608,835959,?,Keyboard,3,1,3,,Keyboard,Keyboard,1,1,Keyboard,-999999,22,347796,1,1726,349522,,,,Keyboard,RME,0,1,Keyboard,-999999,16,343646,4,4128,347774,BlockList,0,,Keyboard,-999999,24,838551,{TAB},2442,840993,,,,16,,,,,,,,,,,,,2,1,13 copy.bmp,1,1,Keyboard,-999999,23,556893,1,1527,558420,42*tg6D,t,,,,,,,,RMEProc,1,2,Keyboard,-999999,16,551294,2,5576,556870,13,1,16,RMETrialList,,,,,,,
RMEBPD Clinical Cog Load (2.13.15) Laptop version (2),2911,1,"<?xml version=""1.0""?>\n<Clock xmlns:dt=""urn:schemas-microsoft-com:datatypes""><Description dt:dt=""string"">E-Prime Primary Realtime Clock</Description><StartTime><Timestamp dt:dt=""int"">0</Timestamp><DateUtc dt:dt=""string"">2018-03-23T19:26:33Z</DateUtc></StartTime><FrequencyChanges><FrequencyChange><Frequency dt:dt=""r8"">2922933</Frequency><Timestamp dt:dt=""r8"">775629214389</Timestamp><Current dt:dt=""r8"">0</Current><DateUtc dt:dt=""string"">2018-03-23T19:26:33Z</DateUtc></FrequencyChange></FrequencyChanges></Clock>\n",RMEBPD Clinical Cog Load (2.13.15) Laptop version (2)-2911-1,60.006,1.0.0.451,Keyboard,1,PW,-1759284922,Full,3.0.3.60,3.0.3.60,3/23/2018,3/23/2018 19:26,15:26:34,3.0.3.43,3,Keyboard,1,2543,838527,Keyboard,1,2608,835959,?,Keyboard,3,1,3,,Keyboard,Keyboard,1,1,Keyboard,-999999,22,347796,1,1726,349522,,,,Keyboard,RME,0,1,Keyboard,-999999,16,343646,4,4128,347774,BlockList,0,,Keyboard,-999999,24,838551,{TAB},2442,840993,,,,17,,,,,,,,,,,,,4,1,29 copy.bmp,1,1,Keyboard,-999999,20,569842,1,1337,571179,Kq#694b,4,,,,,,,,RMEProc,0,4,Keyboard,-999999,16,563459,1,6363,569822,29,1,17,RMETrialList,,,,,,,
RMEBPD Clinical Cog Load (2.13.15) Laptop version (2),2911,1,"<?xml version=""1.0""?>\n<Clock xmlns:dt=""urn:schemas-microsoft-com:datatypes""><Description dt:dt=""string"">E-Prime Primary Realtime Clock</Description><StartTime><Timestamp dt:dt=""int"">0</Timestamp><DateUtc dt:dt=""string"">2018-03-23T19:26:33Z</DateUtc></StartTime><FrequencyChanges><FrequencyChange><Frequency dt:dt=""r8"">2922933</Frequency><Timestamp dt:dt=""r8"">775629214389</Timestamp><Current dt:dt=""r8"">0</Current><DateUtc dt:dt=""string"">2018-03-23T19:26:33Z</DateUtc></FrequencyChange></FrequencyChanges></Clock>\n",RMEBPD Clinical Cog Load (2.13.15) Laptop version (2)-2911-1,60.006,1.0.0.451,Keyboard,1,PW,-1759284922,Full,3.0.3.60,3.0.3.60,3/23/2018,3/23/2018 19:26,15:26:34,3.0.3.43,3,Keyboard,1,2543,838527,Keyboard,1,2608,835959,?,Keyboard,3,1,3,,Keyboard,Keyboard,1,1,Keyboard,-999999,22,347796,1,1726,349522,,,,Keyboard,RME,0,1,Keyboard,-999999,16,343646,4,4128,347774,BlockList,0,,Keyboard,-999999,24,838551,{TAB},2442,840993,,,,18,,,,,,,,,,,,,2,2,30 copy.bmp,1,2,Keyboard,-999999,14,583874,2,2756,586630,#KQ47d3,1,,,,,,,,RMEProc,0,2,Keyboard,-999999,16,576208,3,7652,583860,30,1,18,RMETrialList,,,,,,,
RMEBPD Clinical Cog Load (2.13.15) Laptop version (2),2911,1,"<?xml version=""1.0""?>\n<Clock xmlns:dt=""urn:schemas-microsoft-com:datatypes""><Description dt:dt=""string"">E-Prime Primary Realtime Clock</Description><StartTime><Timestamp dt:dt=""int"">0</Timestamp><DateUtc dt:dt=""string"">2018-03-23T19:26:33Z</DateUtc></StartTime><FrequencyChanges><FrequencyChange><Frequency dt:dt=""r8"">2922933</Frequency><Timestamp dt:dt=""r8"">775629214389</Timestamp><Current dt:dt=""r8"">0</Current><DateUtc dt:dt=""string"">2018-03-23T19:26:33Z</DateUtc></FrequencyChange></FrequencyChanges></Clock>\n",RMEBPD Clinical Cog Load (2.13.15) Laptop version (2)-2911-1,60.006,1.0.0.451,Keyboard,1,PW,-1759284922,Full,3.0.3.60,3.0.3.60,3/23/2018,3/23/2018 19:26,15:26:34,3.0.3.43,3,Keyboard,1,2543,838527,Keyboard,1,2608,835959,?,Keyboard,3,1,3,,Keyboard,Keyboard,1,1,Keyboard,-999999,22,347796,1,1726,349522,,,,Keyboard,RME,0,1,Keyboard,-999999,16,343646,4,4128,347774,BlockList,0,,Keyboard,-999999,24,838551,{TAB},2442,840993,,,,19,,,,,,,,,,,,,2,2,20 copy.bmp,0,2,Keyboard,-999999,15,597473,1,1319,598792,Ev*41x2,d,,,,,,,,RMEProc,1,2,Keyboard,-999999,16,591657,2,5801,597458,20,1,19,RMETrialList,,,,,,,
RMEBPD Clinical Cog Load (2.13.15) Laptop version (2),2911,1,"<?xml version=""1.0""?>\n<Clock xmlns:dt=""urn:schemas-microsoft-com:datatypes""><Description dt:dt=""string"">E-Prime Primary Realtime Clock</Description><StartTime><Timestamp dt:dt=""int"">0</Timestamp><DateUtc dt:dt=""string"">2018-03-23T19:26:33Z</DateUtc></StartTime><FrequencyChanges><FrequencyChange><Frequency dt:dt=""r8"">2922933</Frequency><Timestamp dt:dt=""r8"">775629214389</Timestamp><Current dt:dt=""r8"">0</Current><DateUtc dt:dt=""string"">2018-03-23T19:26:33Z</DateUtc></FrequencyChange></FrequencyChanges></Clock>\n",RMEBPD Clinical Cog Load (2.13.15) Laptop version (2)-2911-1,60.006,1.0.0.451,Keyboard,1,PW,-1759284922,Full,3.0.3.60,3.0.3.60,3/23/2018,3/23/2018 19:26,15:26:34,3.0.3.43,3,Keyboard,1,2543,838527,Keyboard,1,2608,835959,?,Keyboard,3,1,3,,Keyboard,Keyboard,1,1,Keyboard,-999999,22,347796,1,1726,349522,,,,Keyboard,RME,0,1,Keyboard,-999999,16,343646,4,4128,347774,BlockList,0,,Keyboard,-999999,24,838551,{TAB},2442,840993,,,,20,,,,,,,,,,,,,1,2,32 copy.bmp,0,2,Keyboard,-999999,22,609422,1,1417,610839,Ty34*g5,j,,,,,,,,RMEProc,1,1,Keyboard,-999999,16,603822,1,5578,609400,32,1,20,RMETrialList,,,,,,,
RMEBPD Clinical Cog Load (2.13.15) Laptop version (2),2911,1,"<?xml version=""1.0""?>\n<Clock xmlns:dt=""urn:schemas-microsoft-com:datatypes""><Description dt:dt=""string"">E-Prime Primary Realtime Clock</Description><StartTime><Timestamp dt:dt=""int"">0</Timestamp><DateUtc dt:dt=""string"">2018-03-23T19:26:33Z</DateUtc></StartTime><FrequencyChanges><FrequencyChange><Frequency dt:dt=""r8"">2922933</Frequency><Timestamp dt:dt=""r8"">775629214389</Timestamp><Current dt:dt=""r8"">0</Current><DateUtc dt:dt=""string"">2018-03-23T19:26:33Z</DateUtc></FrequencyChange></FrequencyChanges></Clock>\n",RMEBPD Clinical Cog Load (2.13.15) Laptop version (2)-2911-1,60.006,1.0.0.451,Keyboard,1,PW,-1759284922,Full,3.0.3.60,3.0.3.60,3/23/2018,3/23/2018 19:26,15:26:34,3.0.3.43,3,Keyboard,1,2543,838527,Keyboard,1,2608,835959,?,Keyboard,3,1,3,,Keyboard,Keyboard,1,1,Keyboard,-999999,22,347796,1,1726,349522,,,,Keyboard,RME,0,1,Keyboard,-999999,16,343646,4,4128,347774,BlockList,0,,Keyboard,-999999,24,838551,{TAB},2442,840993,,,,21,,,,,,,,,,,,,2,1,31 copy.bmp,1,1,Keyboard,-999999,10,625087,1,2132,627219,v9Gu*64,u,,,,,,,,RMEProc,0,2,Keyboard,-999999,16,615871,3,9206,625077,31,1,21,RMETrialList,,,,,,,
RMEBPD Clinical Cog Load (2.13.15) Laptop version (2),2911,1,"<?xml version=""1.0""?>\n<Clock xmlns:dt=""urn:schemas-microsoft-com:datatypes""><Description dt:dt=""string"">E-Prime Primary Realtime Clock</Description><StartTime><Timestamp dt:dt=""int"">0</Timestamp><DateUtc dt:dt=""string"">2018-03-23T19:26:33Z</DateUtc></StartTime><FrequencyChanges><FrequencyChange><Frequency dt:dt=""r8"">2922933</Frequency><Timestamp dt:dt=""r8"">775629214389</Timestamp><Current dt:dt=""r8"">0</Current><DateUtc dt:dt=""string"">2018-03-23T19:26:33Z</DateUtc></FrequencyChange></FrequencyChanges></Clock>\n",RMEBPD Clinical Cog Load (2.13.15) Laptop version (2)-2911-1,60.006,1.0.0.451,Keyboard,1,PW,-1759284922,Full,3.0.3.60,3.0.3.60,3/23/2018,3/23/2018 19:26,15:26:34,3.0.3.43,3,Keyboard,1,2543,838527,Keyboard,1,2608,835959,?,Keyboard,3,1,3,,Keyboard,Keyboard,1,1,Keyboard,-999999,22,347796,1,1726,349522,,,,Keyboard,RME,0,1,Keyboard,-999999,16,343646,4,4128,347774,BlockList,0,,Keyboard,-999999,24,838551,{TAB},2442,840993,,,,22,,,,,,,,,,,,,1,2,10 copy.bmp,0,2,Keyboard,-999999,16,638286,1,1375,639661,XgQ74*m,#,,,,,,,,RMEProc,1,1,Keyboard,-999999,16,632253,1,6017,638270,10,1,22,RMETrialList,,,,,,,
RMEBPD Clinical Cog Load (2.13.15) Laptop version (2),2911,1,"<?xml version=""1.0""?>\n<Clock xmlns:dt=""urn:schemas-microsoft-com:datatypes""><Description dt:dt=""string"">E-Prime Primary Realtime Clock</Description><StartTime><Timestamp dt:dt=""int"">0</Timestamp><DateUtc dt:dt=""string"">2018-03-23T19:26:33Z</DateUtc></StartTime><FrequencyChanges><FrequencyChange><Frequency dt:dt=""r8"">2922933</Frequency><Timestamp dt:dt=""r8"">775629214389</Timestamp><Current dt:dt=""r8"">0</Current><DateUtc dt:dt=""string"">2018-03-23T19:26:33Z</DateUtc></FrequencyChange></FrequencyChanges></Clock>\n",RMEBPD Clinical Cog Load (2.13.15) Laptop version (2)-2911-1,60.006,1.0.0.451,Keyboard,1,PW,-1759284922,Full,3.0.3.60,3.0.3.60,3/23/2018,3/23/2018 19:26,15:26:34,3.0.3.43,3,Keyboard,1,2543,838527,Keyboard,1,2608,835959,?,Keyboard,3,1,3,,Keyboard,Keyboard,1,1,Keyboard,-999999,22,347796,1,1726,349522,,,,Keyboard,RME,0,1,Keyboard,-999999,16,343646,4,4128,347774,BlockList,0,,Keyboard,-999999,24,838551,{TAB},2442,840993,,,,23,,,,,,,,,,,,,2,1,35 copy.bmp,1,1,Keyboard,-999999,17,651968,1,1576,653544,K62*mF3,m,,,,,,,,RMEProc,1,2,Keyboard,-999999,16,644702,2,7248,651950,35,1,23,RMETrialList,,,,,,,
RMEBPD Clinical Cog Load (2.13.15) Laptop version (2),2911,1,"<?xml version=""1.0""?>\n<Clock xmlns:dt=""urn:schemas-microsoft-com:datatypes""><Description dt:dt=""string"">E-Prime Primary Realtime Clock</Description><StartTime><Timestamp dt:dt=""int"">0</Timestamp><DateUtc dt:dt=""string"">2018-03-23T19:26:33Z</DateUtc></StartTime><FrequencyChanges><FrequencyChange><Frequency dt:dt=""r8"">2922933</Frequency><Timestamp dt:dt=""r8"">775629214389</Timestamp><Current dt:dt=""r8"">0</Current><DateUtc dt:dt=""string"">2018-03-23T19:26:33Z</DateUtc></FrequencyChange></FrequencyChanges></Clock>\n",RMEBPD Clinical Cog Load (2.13.15) Laptop version (2)-2911-1,60.006,1.0.0.451,Keyboard,1,PW,-1759284922,Full,3.0.3.60,3.0.3.60,3/23/2018,3/23/2018 19:26,15:26:34,3.0.3.43,3,Keyboard,1,2543,838527,Keyboard,1,2608,835959,?,Keyboard,3,1,3,,Keyboard,Keyboard,1,1,Keyboard,-999999,22,347796,1,1726,349522,,,,Keyboard,RME,0,1,Keyboard,-999999,16,343646,4,4128,347774,BlockList,0,,Keyboard,-999999,24,838551,{TAB},2442,840993,,,,24,,,,,,,,,,,,,4,1,19 copy.bmp,1,1,Keyboard,-999999,20,667300,1,1641,668941,v5GH79*,5,,,,,,,,RMEProc,1,4,Keyboard,-999999,16,658584,4,8696,667280,19,1,24,RMETrialList,,,,,,,
RMEBPD Clinical Cog Load (2.13.15) Laptop version (2),2911,1,"<?xml version=""1.0""?>\n<Clock xmlns:dt=""urn:schemas-microsoft-com:datatypes""><Description dt:dt=""string"">E-Prime Primary Realtime Clock</Description><StartTime><Timestamp dt:dt=""int"">0</Timestamp><DateUtc dt:dt=""string"">2018-03-23T19:26:33Z</DateUtc></StartTime><FrequencyChanges><FrequencyChange><Frequency dt:dt=""r8"">2922933</Frequency><Timestamp dt:dt=""r8"">775629214389</Timestamp><Current dt:dt=""r8"">0</Current><DateUtc dt:dt=""string"">2018-03-23T19:26:33Z</DateUtc></FrequencyChange></FrequencyChanges></Clock>\n",RMEBPD Clinical Cog Load (2.13.15) Laptop version (2)-2911-1,60.006,1.0.0.451,Keyboard,1,PW,-1759284922,Full,3.0.3.60,3.0.3.60,3/23/2018,3/23/2018 19:26,15:26:34,3.0.3.43,3,Keyboard,1,2543,838527,Keyboard,1,2608,835959,?,Keyboard,3,1,3,,Keyboard,Keyboard,1,1,Keyboard,-999999,22,347796,1,1726,349522,,,,Keyboard,RME,0,1,Keyboard,-999999,16,343646,4,4128,347774,BlockList,0,,Keyboard,-999999,24,838551,{TAB},2442,840993,,,,25,,,,,,,,,,,,,3,2,26 copy.bmp,1,2,Keyboard,-999999,9,680232,2,2120,682352,pDF59#1,q,,,,,,,,RMEProc,1,3,Keyboard,-999999,17,673983,3,6240,680223,26,1,25,RMETrialList,,,,,,,
RMEBPD Clinical Cog Load (2.13.15) Laptop version (2),2911,1,"<?xml version=""1.0""?>\n<Clock xmlns:dt=""urn:schemas-microsoft-com:datatypes""><Description dt:dt=""string"">E-Prime Primary Realtime Clock</Description><StartTime><Timestamp dt:dt=""int"">0</Timestamp><DateUtc dt:dt=""string"">2018-03-23T19:26:33Z</DateUtc></StartTime><FrequencyChanges><FrequencyChange><Frequency dt:dt=""r8"">2922933</Frequency><Timestamp dt:dt=""r8"">775629214389</Timestamp><Current dt:dt=""r8"">0</Current><DateUtc dt:dt=""string"">2018-03-23T19:26:33Z</DateUtc></FrequencyChange></FrequencyChanges></Clock>\n",RMEBPD Clinical Cog Load (2.13.15) Laptop version (2)-2911-1,60.006,1.0.0.451,Keyboard,1,PW,-1759284922,Full,3.0.3.60,3.0.3.60,3/23/2018,3/23/2018 19:26,15:26:34,3.0.3.43,3,Keyboard,1,2543,838527,Keyboard,1,2608,835959,?,Keyboard,3,1,3,,Keyboard,Keyboard,1,1,Keyboard,-999999,22,347796,1,1726,349522,,,,Keyboard,RME,0,1,Keyboard,-999999,16,343646,4,4128,347774,BlockList,0,,Keyboard,-999999,24,838551,{TAB},2442,840993,,,,26,,,,,,,,,,,,,2,1,27 copy.bmp,1,1,Keyboard,-999999,9,692914,1,1548,694462,86Y4n*J,Y,,,,,,,,RMEProc,0,2,Keyboard,-999999,16,687381,4,5524,692905,27,1,26,RMETrialList,,,,,,,
RMEBPD Clinical Cog Load (2.13.15) Laptop version (2),2911,1,"<?xml version=""1.0""?>\n<Clock xmlns:dt=""urn:schemas-microsoft-com:datatypes""><Description dt:dt=""string"">E-Prime Primary Realtime Clock</Description><StartTime><Timestamp dt:dt=""int"">0</Timestamp><DateUtc dt:dt=""string"">2018-03-23T19:26:33Z</DateUtc></StartTime><FrequencyChanges><FrequencyChange><Frequency dt:dt=""r8"">2922933</Frequency><Timestamp dt:dt=""r8"">775629214389</Timestamp><Current dt:dt=""r8"">0</Current><DateUtc dt:dt=""string"">2018-03-23T19:26:33Z</DateUtc></FrequencyChange></FrequencyChanges></Clock>\n",RMEBPD Clinical Cog Load (2.13.15) Laptop version (2)-2911-1,60.006,1.0.0.451,Keyboard,1,PW,-1759284922,Full,3.0.3.60,3.0.3.60,3/23/2018,3/23/2018 19:26,15:26:34,3.0.3.43,3,Keyboard,1,2543,838527,Keyboard,1,2608,835959,?,Keyboard,3,1,3,,Keyboard,Keyboard,1,1,Keyboard,-999999,22,347796,1,1726,349522,,,,Keyboard,RME,0,1,Keyboard,-999999,16,343646,4,4128,347774,BlockList,0,,Keyboard,-999999,24,838551,{TAB},2442,840993,,,,27,,,,,,,,,,,,,1,2,22 copy.bmp,0,2,Keyboard,-999999,15,706680,1,1535,708215,U8#5nq,J,,,,,,,,RMEProc,1,1,Keyboard,-999999,16,699497,1,7168,706665,22,1,27,RMETrialList,,,,,,,
RMEBPD Clinical Cog Load (2.13.15) Laptop version (2),2911,1,"<?xml version=""1.0""?>\n<Clock xmlns:dt=""urn:schemas-microsoft-com:datatypes""><Description dt:dt=""string"">E-Prime Primary Realtime Clock</Description><StartTime><Timestamp dt:dt=""int"">0</Timestamp><DateUtc dt:dt=""string"">2018-03-23T19:26:33Z</DateUtc></StartTime><FrequencyChanges><FrequencyChange><Frequency dt:dt=""r8"">2922933</Frequency><Timestamp dt:dt=""r8"">775629214389</Timestamp><Current dt:dt=""r8"">0</Current><DateUtc dt:dt=""string"">2018-03-23T19:26:33Z</DateUtc></FrequencyChange></FrequencyChanges></Clock>\n",RMEBPD Clinical Cog Load (2.13.15) Laptop version (2)-2911-1,60.006,1.0.0.451,Keyboard,1,PW,-1759284922,Full,3.0.3.60,3.0.3.60,3/23/2018,3/23/2018 19:26,15:26:34,3.0.3.43,3,Keyboard,1,2543,838527,Keyboard,1,2608,835959,?,Keyboard,3,1,3,,Keyboard,Keyboard,1,1,Keyboard,-999999,22,347796,1,1726,349522,,,,Keyboard,RME,0,1,Keyboard,-999999,16,343646,4,4128,347774,BlockList,0,,Keyboard,-999999,24,838551,{TAB},2442,840993,,,,28,,,,,,,,,,,,,3,2,36 copy.bmp,1,2,Keyboard,-999999,11,718929,2,2032,720961,*9x54tF,^,,,,,,,,RMEProc,1,3,Keyboard,-999999,17,713246,3,5672,718918,36,1,28,RMETrialList,,,,,,,
RMEBPD Clinical Cog Load (2.13.15) Laptop version (2),2911,1,"<?xml version=""1.0""?>\n<Clock xmlns:dt=""urn:schemas-microsoft-com:datatypes""><Description dt:dt=""string"">E-Prime Primary Realtime Clock</Description><StartTime><Timestamp dt:dt=""int"">0</Timestamp><DateUtc dt:dt=""string"">2018-03-23T19:26:33Z</DateUtc></StartTime><FrequencyChanges><FrequencyChange><Frequency dt:dt=""r8"">2922933</Frequency><Timestamp dt:dt=""r8"">775629214389</Timestamp><Current dt:dt=""r8"">0</Current><DateUtc dt:dt=""string"">2018-03-23T19:26:33Z</DateUtc></FrequencyChange></FrequencyChanges></Clock>\n",RMEBPD Clinical Cog Load (2.13.15) Laptop version (2)-2911-1,60.006,1.0.0.451,Keyboard,1,PW,-1759284922,Full,3.0.3.60,3.0.3.60,3/23/2018,3/23/2018 19:26,15:26:34,3.0.3.43,3,Keyboard,1,2543,838527,Keyboard,1,2608,835959,?,Keyboard,3,1,3,,Keyboard,Keyboard,1,1,Keyboard,-999999,22,347796,1,1726,349522,,,,Keyboard,RME,0,1,Keyboard,-999999,16,343646,4,4128,347774,BlockList,0,,Keyboard,-999999,24,838551,{TAB},2442,840993,,,,29,,,,,,,,,,,,,4,1,25 copy.bmp,1,1,Keyboard,-999999,9,740243,1,1659,741902,G97hv*3,h,,,,,,,,RMEProc,0,4,Keyboard,-999999,17,725995,3,14239,740234,25,1,29,RMETrialList,,,,,,,
RMEBPD Clinical Cog Load (2.13.15) Laptop version (2),2911,1,"<?xml version=""1.0""?>\n<Clock xmlns:dt=""urn:schemas-microsoft-com:datatypes""><Description dt:dt=""string"">E-Prime Primary Realtime Clock</Description><StartTime><Timestamp dt:dt=""int"">0</Timestamp><DateUtc dt:dt=""string"">2018-03-23T19:26:33Z</DateUtc></StartTime><FrequencyChanges><FrequencyChange><Frequency dt:dt=""r8"">2922933</Frequency><Timestamp dt:dt=""r8"">775629214389</Timestamp><Current dt:dt=""r8"">0</Current><DateUtc dt:dt=""string"">2018-03-23T19:26:33Z</DateUtc></FrequencyChange></FrequencyChanges></Clock>\n",RMEBPD Clinical Cog Load (2.13.15) Laptop version (2)-2911-1,60.006,1.0.0.451,Keyboard,1,PW,-1759284922,Full,3.0.3.60,3.0.3.60,3/23/2018,3/23/2018 19:26,15:26:34,3.0.3.43,3,Keyboard,1,2543,838527,Keyboard,1,2608,835959,?,Keyboard,3,1,3,,Keyboard,Keyboard,1,1,Keyboard,-999999,22,347796,1,1726,349522,,,,Keyboard,RME,0,1,Keyboard,-999999,16,343646,4,4128,347774,BlockList,0,,Keyboard,-999999,24,838551,{TAB},2442,840993,,,,30,,,,,,,,,,,,,3,2,12 copy.bmp,1,2,Keyboard,-999999,14,758025,2,1816,759841,K#zr5N6,2,,,,,,,,RMEProc,1,3,Keyboard,-999999,17,746943,3,11068,758011,12,1,30,RMETrialList,,,,,,,
RMEBPD Clinical Cog Load (2.13.15) Laptop version (2),2911,1,"<?xml version=""1.0""?>\n<Clock xmlns:dt=""urn:schemas-microsoft-com:datatypes""><Description dt:dt=""string"">E-Prime Primary Realtime Clock</Description><StartTime><Timestamp dt:dt=""int"">0</Timestamp><DateUtc dt:dt=""string"">2018-03-23T19:26:33Z</DateUtc></StartTime><FrequencyChanges><FrequencyChange><Frequency dt:dt=""r8"">2922933</Frequency><Timestamp dt:dt=""r8"">775629214389</Timestamp><Current dt:dt=""r8"">0</Current><DateUtc dt:dt=""string"">2018-03-23T19:26:33Z</DateUtc></FrequencyChange></FrequencyChanges></Clock>\n",RMEBPD Clinical Cog Load (2.13.15) Laptop version (2)-2911-1,60.006,1.0.0.451,Keyboard,1,PW,-1759284922,Full,3.0.3.60,3.0.3.60,3/23/2018,3/23/2018 19:26,15:26:34,3.0.3.43,3,Keyboard,1,2543,838527,Keyboard,1,2608,835959,?,Keyboard,3,1,3,,Keyboard,Keyboard,1,1,Keyboard,-999999,22,347796,1,1726,349522,,,,Keyboard,RME,0,1,Keyboard,-999999,16,343646,4,4128,347774,BlockList,0,,Keyboard,-999999,24,838551,{TAB},2442,840993,,,,31,,,,,,,,,,,,,2,2,16 copy.bmp,0,2,Keyboard,-999999,16,770857,1,1075,771932,U*9gq51,Q,,,,,,,,RMEProc,1,2,Keyboard,-999999,16,764874,2,5967,770841,16,1,31,RMETrialList,,,,,,,
RMEBPD Clinical Cog Load (2.13.15) Laptop version (2),2911,1,"<?xml version=""1.0""?>\n<Clock xmlns:dt=""urn:schemas-microsoft-com:datatypes""><Description dt:dt=""string"">E-Prime Primary Realtime Clock</Description><StartTime><Timestamp dt:dt=""int"">0</Timestamp><DateUtc dt:dt=""string"">2018-03-23T19:26:33Z</DateUtc></StartTime><FrequencyChanges><FrequencyChange><Frequency dt:dt=""r8"">2922933</Frequency><Timestamp dt:dt=""r8"">775629214389</Timestamp><Current dt:dt=""r8"">0</Current><DateUtc dt:dt=""string"">2018-03-23T19:26:33Z</DateUtc></FrequencyChange></FrequencyChanges></Clock>\n",RMEBPD Clinical Cog Load (2.13.15) Laptop version (2)-2911-1,60.006,1.0.0.451,Keyboard,1,PW,-1759284922,Full,3.0.3.60,3.0.3.60,3/23/2018,3/23/2018 19:26,15:26:34,3.0.3.43,3,Keyboard,1,2543,838527,Keyboard,1,2608,835959,?,Keyboard,3,1,3,,Keyboard,Keyboard,1,1,Keyboard,-999999,22,347796,1,1726,349522,,,,Keyboard,RME,0,1,Keyboard,-999999,16,343646,4,4128,347774,BlockList,0,,Keyboard,-999999,24,838551,{TAB},2442,840993,,,,32,,,,,,,,,,,,,1,2,08 copy.bmp,1,2,Keyboard,-999999,10,780973,2,2505,783478,Y9y3*w6,f,,,,,,,,RMEProc,1,1,Keyboard,-999999,16,776973,1,3990,780963,8,1,32,RMETrialList,,,,,,,
RMEBPD Clinical Cog Load (2.13.15) Laptop version (2),2911,1,"<?xml version=""1.0""?>\n<Clock xmlns:dt=""urn:schemas-microsoft-com:datatypes""><Description dt:dt=""string"">E-Prime Primary Realtime Clock</Description><StartTime><Timestamp dt:dt=""int"">0</Timestamp><DateUtc dt:dt=""string"">2018-03-23T19:26:33Z</DateUtc></StartTime><FrequencyChanges><FrequencyChange><Frequency dt:dt=""r8"">2922933</Frequency><Timestamp dt:dt=""r8"">775629214389</Timestamp><Current dt:dt=""r8"">0</Current><DateUtc dt:dt=""string"">2018-03-23T19:26:33Z</DateUtc></FrequencyChange></FrequencyChanges></Clock>\n",RMEBPD Clinical Cog Load (2.13.15) Laptop version (2)-2911-1,60.006,1.0.0.451,Keyboard,1,PW,-1759284922,Full,3.0.3.60,3.0.3.60,3/23/2018,3/23/2018 19:26,15:26:34,3.0.3.43,3,Keyboard,1,2543,838527,Keyboard,1,2608,835959,?,Keyboard,3,1,3,,Keyboard,Keyboard,1,1,Keyboard,-999999,22,347796,1,1726,349522,,,,Keyboard,RME,0,1,Keyboard,-999999,16,343646,4,4128,347774,BlockList,0,,Keyboard,-999999,24,838551,{TAB},2442,840993,,,,33,,,,,,,,,,,,,1,1,01 copy.bmp,1,1,Keyboard,-999999,22,793122,1,1030,794152,Hj6973*,j,,,,,,,,RMEProc,1,1,Keyboard,-999999,16,788505,1,4594,793099,1,1,33,RMETrialList,,,,,,,
RMEBPD Clinical Cog Load (2.13.15) Laptop version (2),2911,1,"<?xml version=""1.0""?>\n<Clock xmlns:dt=""urn:schemas-microsoft-com:datatypes""><Description dt:dt=""string"">E-Prime Primary Realtime Clock</Description><StartTime><Timestamp dt:dt=""int"">0</Timestamp><DateUtc dt:dt=""string"">2018-03-23T19:26:33Z</DateUtc></StartTime><FrequencyChanges><FrequencyChange><Frequency dt:dt=""r8"">2922933</Frequency><Timestamp dt:dt=""r8"">775629214389</Timestamp><Current dt:dt=""r8"">0</Current><DateUtc dt:dt=""string"">2018-03-23T19:26:33Z</DateUtc></FrequencyChange></FrequencyChanges></Clock>\n",RMEBPD Clinical Cog Load (2.13.15) Laptop version (2)-2911-1,60.006,1.0.0.451,Keyboard,1,PW,-1759284922,Full,3.0.3.60,3.0.3.60,3/23/2018,3/23/2018 19:26,15:26:34,3.0.3.43,3,Keyboard,1,2543,838527,Keyboard,1,2608,835959,?,Keyboard,3,1,3,,Keyboard,Keyboard,1,1,Keyboard,-999999,22,347796,1,1726,349522,,,,Keyboard,RME,0,1,Keyboard,-999999,16,343646,4,4128,347774,BlockList,0,,Keyboard,-999999,24,838551,{TAB},2442,840993,,,,34,,,,,,,,,,,,,3,1,07 copy.bmp,0,1,Keyboard,-999999,25,806804,2,1804,808608,s37PX#j,7,,,,,,,,RMEProc,1,3,Keyboard,-999999,16,799188,3,7591,806779,7,1,34,RMETrialList,,,,,,,
RMEBPD Clinical Cog Load (2.13.15) Laptop version (2),2911,1,"<?xml version=""1.0""?>\n<Clock xmlns:dt=""urn:schemas-microsoft-com:datatypes""><Description dt:dt=""string"">E-Prime Primary Realtime Clock</Description><StartTime><Timestamp dt:dt=""int"">0</Timestamp><DateUtc dt:dt=""string"">2018-03-23T19:26:33Z</DateUtc></StartTime><FrequencyChanges><FrequencyChange><Frequency dt:dt=""r8"">2922933</Frequency><Timestamp dt:dt=""r8"">775629214389</Timestamp><Current dt:dt=""r8"">0</Current><DateUtc dt:dt=""string"">2018-03-23T19:26:33Z</DateUtc></FrequencyChange></FrequencyChanges></Clock>\n",RMEBPD Clinical Cog Load (2.13.15) Laptop version (2)-2911-1,60.006,1.0.0.451,Keyboard,1,PW,-1759284922,Full,3.0.3.60,3.0.3.60,3/23/2018,3/23/2018 19:26,15:26:34,3.0.3.43,3,Keyboard,1,2543,838527,Keyboard,1,2608,835959,?,Keyboard,3,1,3,,Keyboard,Keyboard,1,1,Keyboard,-999999,22,347796,1,1726,349522,,,,Keyboard,RME,0,1,Keyboard,-999999,16,343646,4,4128,347774,BlockList,0,,Keyboard,-999999,24,838551,{TAB},2442,840993,,,,35,,,,,,,,,,,,,1,1,17 copy.bmp,1,1,Keyboard,-999999,17,817403,1,2503,819906,38qJ#rQ,q,,,,,,,,RMEProc,1,1,Keyboard,-999999,16,813636,1,3750,817386,17,1,35,RMETrialList,,,,,,,
RMEBPD Clinical Cog Load (2.13.15) Laptop version (2),2911,1,"<?xml version=""1.0""?>\n<Clock xmlns:dt=""urn:schemas-microsoft-com:datatypes""><Description dt:dt=""string"">E-Prime Primary Realtime Clock</Description><StartTime><Timestamp dt:dt=""int"">0</Timestamp><DateUtc dt:dt=""string"">2018-03-23T19:26:33Z</DateUtc></StartTime><FrequencyChanges><FrequencyChange><Frequency dt:dt=""r8"">2922933</Frequency><Timestamp dt:dt=""r8"">775629214389</Timestamp><Current dt:dt=""r8"">0</Current><DateUtc dt:dt=""string"">2018-03-23T19:26:33Z</DateUtc></FrequencyChange></FrequencyChanges></Clock>\n",RMEBPD Clinical Cog Load (2.13.15) Laptop version (2)-2911-1,60.006,1.0.0.451,Keyboard,1,PW,-1759284922,Full,3.0.3.60,3.0.3.60,3/23/2018,3/23/2018 19:26,15:26:34,3.0.3.43,3,Keyboard,1,2543,838527,Keyboard,1,2608,835959,?,Keyboard,3,1,3,,Keyboard,Keyboard,1,1,Keyboard,-999999,22,347796,1,1726,349522,,,,Keyboard,RME,0,1,Keyboard,-999999,16,343646,4,4128,347774,BlockList,0,,Keyboard,-999999,24,838551,{TAB},2442,840993,,,,36,,,,,,,,,,,,,2,2,02 copy.bmp,0,2,Keyboard,-999999,23,831385,1,1952,833337,G#935zq,g,,,,,,,,RMEProc,1,2,Keyboard,-999999,16,824935,2,6427,831362,2,1,36,RMETrialList,,,,,,,
RMEBPD Clinical Cog Load (2.13.15) Laptop version (2),2911,1,"<?xml version=""1.0""?>\n<Clock xmlns:dt=""urn:schemas-microsoft-com:datatypes""><Description dt:dt=""string"">E-Prime Primary Realtime Clock</Description><StartTime><Timestamp dt:dt=""int"">0</Timestamp><DateUtc dt:dt=""string"">2018-03-23T19:26:33Z</DateUtc></StartTime><FrequencyChanges><FrequencyChange><Frequency dt:dt=""r8"">2922933</Frequency><Timestamp dt:dt=""r8"">775629214389</Timestamp><Current dt:dt=""r8"">0</Current><DateUtc dt:dt=""string"">2018-03-23T19:26:33Z</DateUtc></FrequencyChange></FrequencyChanges></Clock>\n",RMEBPD Clinical Cog Load (2.13.15) Laptop version (2)-2911-1,60.006,1.0.0.451,Keyboard,1,PW,-1759284922,Full,3.0.3.60,3.0.3.60,3/23/2018,3/23/2018 19:26,15:26:34,3.0.3.43,4,,,,,,,,,?,,4,1,4,,,,,,,,,,,,,Keyboard,2346,843363,,PANAS,,,,,,,,,,BlockList,,,,,,,,,,,,,1,,,,,,,,,,,,,,,PANAS01.bmp,,,,,,,,,,,,1,2,23,Keyboard,2,6064,849448,PANASProc,,,,,,,,,,,,,PANASQuestions,,,,,,,
RMEBPD Clinical Cog Load (2.13.15) Laptop version (2),2911,1,"<?xml version=""1.0""?>\n<Clock xmlns:dt=""urn:schemas-microsoft-com:datatypes""><Description dt:dt=""string"">E-Prime Primary Realtime Clock</Description><StartTime><Timestamp dt:dt=""int"">0</Timestamp><DateUtc dt:dt=""string"">2018-03-23T19:26:33Z</DateUtc></StartTime><FrequencyChanges><FrequencyChange><Frequency dt:dt=""r8"">2922933</Frequency><Timestamp dt:dt=""r8"">775629214389</Timestamp><Current dt:dt=""r8"">0</Current><DateUtc dt:dt=""string"">2018-03-23T19:26:33Z</DateUtc></FrequencyChange></FrequencyChanges></Clock>\n",RMEBPD Clinical Cog Load (2.13.15) Laptop version (2)-2911-1,60.006,1.0.0.451,Keyboard,1,PW,-1759284922,Full,3.0.3.60,3.0.3.60,3/23/2018,3/23/2018 19:26,15:26:34,3.0.3.43,4,,,,,,,,,?,,4,1,4,,,,,,,,,,,,,Keyboard,2346,843363,,PANAS,,,,,,,,,,BlockList,,,,,,,,,,,,,2,,,,,,,,,,,,,,,PANAS02.bmp,,,,,,,,,,,,2,2,24,Keyboard,2,1168,850635,PANASProc,,,,,,,,,,,,,PANASQuestions,,,,,,,
RMEBPD Clinical Cog Load (2.13.15) Laptop version (2),2911,1,"<?xml version=""1.0""?>\n<Clock xmlns:dt=""urn:schemas-microsoft-com:datatypes""><Description dt:dt=""string"">E-Prime Primary Realtime Clock</Description><StartTime><Timestamp dt:dt=""int"">0</Timestamp><DateUtc dt:dt=""string"">2018-03-23T19:26:33Z</DateUtc></StartTime><FrequencyChanges><FrequencyChange><Frequency dt:dt=""r8"">2922933</Frequency><Timestamp dt:dt=""r8"">775629214389</Timestamp><Current dt:dt=""r8"">0</Current><DateUtc dt:dt=""string"">2018-03-23T19:26:33Z</DateUtc></FrequencyChange></FrequencyChanges></Clock>\n",RMEBPD Clinical Cog Load (2.13.15) Laptop version (2)-2911-1,60.006,1.0.0.451,Keyboard,1,PW,-1759284922,Full,3.0.3.60,3.0.3.60,3/23/2018,3/23/2018 19:26,15:26:34,3.0.3.43,4,,,,,,,,,?,,4,1,4,,,,,,,,,,,,,Keyboard,2346,843363,,PANAS,,,,,,,,,,BlockList,,,,,,,,,,,,,3,,,,,,,,,,,,,,,PANAS03.bmp,,,,,,,,,,,,3,2,25,Keyboard,2,782,851432,PANASProc,,,,,,,,,,,,,PANASQuestions,,,,,,,
RMEBPD Clinical Cog Load (2.13.15) Laptop version (2),2911,1,"<?xml version=""1.0""?>\n<Clock xmlns:dt=""urn:schemas-microsoft-com:datatypes""><Description dt:dt=""string"">E-Prime Primary Realtime Clock</Description><StartTime><Timestamp dt:dt=""int"">0</Timestamp><DateUtc dt:dt=""string"">2018-03-23T19:26:33Z</DateUtc></StartTime><FrequencyChanges><FrequencyChange><Frequency dt:dt=""r8"">2922933</Frequency><Timestamp dt:dt=""r8"">775629214389</Timestamp><Current dt:dt=""r8"">0</Current><DateUtc dt:dt=""string"">2018-03-23T19:26:33Z</DateUtc></FrequencyChange></FrequencyChanges></Clock>\n",RMEBPD Clinical Cog Load (2.13.15) Laptop version (2)-2911-1,60.006,1.0.0.451,Keyboard,1,PW,-1759284922,Full,3.0.3.60,3.0.3.60,3/23/2018,3/23/2018 19:26,15:26:34,3.0.3.43,4,,,,,,,,,?,,4,1,4,,,,,,,,,,,,,Keyboard,2346,843363,,PANAS,,,,,,,,,,BlockList,,,,,,,,,,,,,4,,,,,,,,,,,,,,,PANAS04.bmp,,,,,,,,,,,,4,2,26,Keyboard,4,2601,854051,PANASProc,,,,,,,,,,,,,PANASQuestions,,,,,,,
RMEBPD Clinical Cog Load (2.13.15) Laptop version (2),2911,1,"<?xml version=""1.0""?>\n<Clock xmlns:dt=""urn:schemas-microsoft-com:datatypes""><Description dt:dt=""string"">E-Prime Primary Realtime Clock</Description><StartTime><Timestamp dt:dt=""int"">0</Timestamp><DateUtc dt:dt=""string"">2018-03-23T19:26:33Z</DateUtc></StartTime><FrequencyChanges><FrequencyChange><Frequency dt:dt=""r8"">2922933</Frequency><Timestamp dt:dt=""r8"">775629214389</Timestamp><Current dt:dt=""r8"">0</Current><DateUtc dt:dt=""string"">2018-03-23T19:26:33Z</DateUtc></FrequencyChange></FrequencyChanges></Clock>\n",RMEBPD Clinical Cog Load (2.13.15) Laptop version (2)-2911-1,60.006,1.0.0.451,Keyboard,1,PW,-1759284922,Full,3.0.3.60,3.0.3.60,3/23/2018,3/23/2018 19:26,15:26:34,3.0.3.43,4,,,,,,,,,?,,4,1,4,,,,,,,,,,,,,Keyboard,2346,843363,,PANAS,,,,,,,,,,BlockList,,,,,,,,,,,,,5,,,,,,,,,,,,,,,PANAS05.bmp,,,,,,,,,,,,5,2,27,Keyboard,2,2006,856072,PANASProc,,,,,,,,,,,,,PANASQuestions,,,,,,,
RMEBPD Clinical Cog Load (2.13.15) Laptop version (2),2911,1,"<?xml version=""1.0""?>\n<Clock xmlns:dt=""urn:schemas-microsoft-com:datatypes""><Description dt:dt=""string"">E-Prime Primary Realtime Clock</Description><StartTime><Timestamp dt:dt=""int"">0</Timestamp><DateUtc dt:dt=""string"">2018-03-23T19:26:33Z</DateUtc></StartTime><FrequencyChanges><FrequencyChange><Frequency dt:dt=""r8"">2922933</Frequency><Timestamp dt:dt=""r8"">775629214389</Timestamp><Current dt:dt=""r8"">0</Current><DateUtc dt:dt=""string"">2018-03-23T19:26:33Z</DateUtc></FrequencyChange></FrequencyChanges></Clock>\n",RMEBPD Clinical Cog Load (2.13.15) Laptop version (2)-2911-1,60.006,1.0.0.451,Keyboard,1,PW,-1759284922,Full,3.0.3.60,3.0.3.60,3/23/2018,3/23/2018 19:26,15:26:34,3.0.3.43,4,,,,,,,,,?,,4,1,4,,,,,,,,,,,,,Keyboard,2346,843363,,PANAS,,,,,,,,,,BlockList,,,,,,,,,,,,,6,,,,,,,,,,,,,,,PANAS06.bmp,,,,,,,,,,,,6,2,28,Keyboard,2,900,856999,PANASProc,,,,,,,,,,,,,PANASQuestions,,,,,,,
RMEBPD Clinical Cog Load (2.13.15) Laptop version (2),2911,1,"<?xml version=""1.0""?>\n<Clock xmlns:dt=""urn:schemas-microsoft-com:datatypes""><Description dt:dt=""string"">E-Prime Primary Realtime Clock</Description><StartTime><Timestamp dt:dt=""int"">0</Timestamp><DateUtc dt:dt=""string"">2018-03-23T19:26:33Z</DateUtc></StartTime><FrequencyChanges><FrequencyChange><Frequency dt:dt=""r8"">2922933</Frequency><Timestamp dt:dt=""r8"">775629214389</Timestamp><Current dt:dt=""r8"">0</Current><DateUtc dt:dt=""string"">2018-03-23T19:26:33Z</DateUtc></FrequencyChange></FrequencyChanges></Clock>\n",RMEBPD Clinical Cog Load (2.13.15) Laptop version (2)-2911-1,60.006,1.0.0.451,Keyboard,1,PW,-1759284922,Full,3.0.3.60,3.0.3.60,3/23/2018,3/23/2018 19:26,15:26:34,3.0.3.43,4,,,,,,,,,?,,4,1,4,,,,,,,,,,,,,Keyboard,2346,843363,,PANAS,,,,,,,,,,BlockList,,,,,,,,,,,,,7,,,,,,,,,,,,,,,PANAS07.bmp,,,,,,,,,,,,7,2,29,Keyboard,2,824,857840,PANASProc,,,,,,,,,,,,,PANASQuestions,,,,,,,
RMEBPD Clinical Cog Load (2.13.15) Laptop version (2),2911,1,"<?xml version=""1.0""?>\n<Clock xmlns:dt=""urn:schemas-microsoft-com:datatypes""><Description dt:dt=""string"">E-Prime Primary Realtime Clock</Description><StartTime><Timestamp dt:dt=""int"">0</Timestamp><DateUtc dt:dt=""string"">2018-03-23T19:26:33Z</DateUtc></StartTime><FrequencyChanges><FrequencyChange><Frequency dt:dt=""r8"">2922933</Frequency><Timestamp dt:dt=""r8"">775629214389</Timestamp><Current dt:dt=""r8"">0</Current><DateUtc dt:dt=""string"">2018-03-23T19:26:33Z</DateUtc></FrequencyChange></FrequencyChanges></Clock>\n",RMEBPD Clinical Cog Load (2.13.15) Laptop version (2)-2911-1,60.006,1.0.0.451,Keyboard,1,PW,-1759284922,Full,3.0.3.60,3.0.3.60,3/23/2018,3/23/2018 19:26,15:26:34,3.0.3.43,4,,,,,,,,,?,,4,1,4,,,,,,,,,,,,,Keyboard,2346,843363,,PANAS,,,,,,,,,,BlockList,,,,,,,,,,,,,8,,,,,,,,,,,,,,,PANAS08.bmp,,,,,,,,,,,,8,2,30,Keyboard,5,1755,859621,PANASProc,,,,,,,,,,,,,PANASQuestions,,,,,,,
RMEBPD Clinical Cog Load (2.13.15) Laptop version (2),2911,1,"<?xml version=""1.0""?>\n<Clock xmlns:dt=""urn:schemas-microsoft-com:datatypes""><Description dt:dt=""string"">E-Prime Primary Realtime Clock</Description><StartTime><Timestamp dt:dt=""int"">0</Timestamp><DateUtc dt:dt=""string"">2018-03-23T19:26:33Z</DateUtc></StartTime><FrequencyChanges><FrequencyChange><Frequency dt:dt=""r8"">2922933</Frequency><Timestamp dt:dt=""r8"">775629214389</Timestamp><Current dt:dt=""r8"">0</Current><DateUtc dt:dt=""string"">2018-03-23T19:26:33Z</DateUtc></FrequencyChange></FrequencyChanges></Clock>\n",RMEBPD Clinical Cog Load (2.13.15) Laptop version (2)-2911-1,60.006,1.0.0.451,Keyboard,1,PW,-1759284922,Full,3.0.3.60,3.0.3.60,3/23/2018,3/23/2018 19:26,15:26:34,3.0.3.43,4,,,,,,,,,?,,4,1,4,,,,,,,,,,,,,Keyboard,2346,843363,,PANAS,,,,,,,,,,BlockList,,,,,,,,,,,,,9,,,,,,,,,,,,,,,PANAS09.bmp,,,,,,,,,,,,9,2,31,Keyboard,3,2521,862170,PANASProc,,,,,,,,,,,,,PANASQuestions,,,,,,,
RMEBPD Clinical Cog Load (2.13.15) Laptop version (2),2911,1,"<?xml version=""1.0""?>\n<Clock xmlns:dt=""urn:schemas-microsoft-com:datatypes""><Description dt:dt=""string"">E-Prime Primary Realtime Clock</Description><StartTime><Timestamp dt:dt=""int"">0</Timestamp><DateUtc dt:dt=""string"">2018-03-23T19:26:33Z</DateUtc></StartTime><FrequencyChanges><FrequencyChange><Frequency dt:dt=""r8"">2922933</Frequency><Timestamp dt:dt=""r8"">775629214389</Timestamp><Current dt:dt=""r8"">0</Current><DateUtc dt:dt=""string"">2018-03-23T19:26:33Z</DateUtc></FrequencyChange></FrequencyChanges></Clock>\n",RMEBPD Clinical Cog Load (2.13.15) Laptop version (2)-2911-1,60.006,1.0.0.451,Keyboard,1,PW,-1759284922,Full,3.0.3.60,3.0.3.60,3/23/2018,3/23/2018 19:26,15:26:34,3.0.3.43,4,,,,,,,,,?,,4,1,4,,,,,,,,,,,,,Keyboard,2346,843363,,PANAS,,,,,,,,,,BlockList,,,,,,,,,,,,,10,,,,,,,,,,,,,,,PANAS10.bmp,,,,,,,,,,,,10,2,32,Keyboard,2,1498,863697,PANASProc,,,,,,,,,,,,,PANASQuestions,,,,,,,
RMEBPD Clinical Cog Load (2.13.15) Laptop version (2),2911,1,"<?xml version=""1.0""?>\n<Clock xmlns:dt=""urn:schemas-microsoft-com:datatypes""><Description dt:dt=""string"">E-Prime Primary Realtime Clock</Description><StartTime><Timestamp dt:dt=""int"">0</Timestamp><DateUtc dt:dt=""string"">2018-03-23T19:26:33Z</DateUtc></StartTime><FrequencyChanges><FrequencyChange><Frequency dt:dt=""r8"">2922933</Frequency><Timestamp dt:dt=""r8"">775629214389</Timestamp><Current dt:dt=""r8"">0</Current><DateUtc dt:dt=""string"">2018-03-23T19:26:33Z</DateUtc></FrequencyChange></FrequencyChanges></Clock>\n",RMEBPD Clinical Cog Load (2.13.15) Laptop version (2)-2911-1,60.006,1.0.0.451,Keyboard,1,PW,-1759284922,Full,3.0.3.60,3.0.3.60,3/23/2018,3/23/2018 19:26,15:26:34,3.0.3.43,4,,,,,,,,,?,,4,1,4,,,,,,,,,,,,,Keyboard,2346,843363,,PANAS,,,,,,,,,,BlockList,,,,,,,,,,,,,11,,,,,,,,,,,,,,,PANAS11.bmp,,,,,,,,,,,,11,2,33,Keyboard,2,3259,866974,PANASProc,,,,,,,,,,,,,PANASQuestions,,,,,,,
RMEBPD Clinical Cog Load (2.13.15) Laptop version (2),2911,1,"<?xml version=""1.0""?>\n<Clock xmlns:dt=""urn:schemas-microsoft-com:datatypes""><Description dt:dt=""string"">E-Prime Primary Realtime Clock</Description><StartTime><Timestamp dt:dt=""int"">0</Timestamp><DateUtc dt:dt=""string"">2018-03-23T19:26:33Z</DateUtc></StartTime><FrequencyChanges><FrequencyChange><Frequency dt:dt=""r8"">2922933</Frequency><Timestamp dt:dt=""r8"">775629214389</Timestamp><Current dt:dt=""r8"">0</Current><DateUtc dt:dt=""string"">2018-03-23T19:26:33Z</DateUtc></FrequencyChange></FrequencyChanges></Clock>\n",RMEBPD Clinical Cog Load (2.13.15) Laptop version (2)-2911-1,60.006,1.0.0.451,Keyboard,1,PW,-1759284922,Full,3.0.3.60,3.0.3.60,3/23/2018,3/23/2018 19:26,15:26:34,3.0.3.43,4,,,,,,,,,?,,4,1,4,,,,,,,,,,,,,Keyboard,2346,843363,,PANAS,,,,,,,,,,BlockList,,,,,,,,,,,,,12,,,,,,,,,,,,,,,PANAS12.bmp,,,,,,,,,,,,12,2,34,Keyboard,5,1902,868900,PANASProc,,,,,,,,,,,,,PANASQuestions,,,,,,,
RMEBPD Clinical Cog Load (2.13.15) Laptop version (2),2911,1,"<?xml version=""1.0""?>\n<Clock xmlns:dt=""urn:schemas-microsoft-com:datatypes""><Description dt:dt=""string"">E-Prime Primary Realtime Clock</Description><StartTime><Timestamp dt:dt=""int"">0</Timestamp><DateUtc dt:dt=""string"">2018-03-23T19:26:33Z</DateUtc></StartTime><FrequencyChanges><FrequencyChange><Frequency dt:dt=""r8"">2922933</Frequency><Timestamp dt:dt=""r8"">775629214389</Timestamp><Current dt:dt=""r8"">0</Current><DateUtc dt:dt=""string"">2018-03-23T19:26:33Z</DateUtc></FrequencyChange></FrequencyChanges></Clock>\n",RMEBPD Clinical Cog Load (2.13.15) Laptop version (2)-2911-1,60.006,1.0.0.451,Keyboard,1,PW,-1759284922,Full,3.0.3.60,3.0.3.60,3/23/2018,3/23/2018 19:26,15:26:34,3.0.3.43,4,,,,,,,,,?,,4,1,4,,,,,,,,,,,,,Keyboard,2346,843363,,PANAS,,,,,,,,,,BlockList,,,,,,,,,,,,,13,,,,,,,,,,,,,,,PANAS13.bmp,,,,,,,,,,,,13,2,35,Keyboard,2,1223,870138,PANASProc,,,,,,,,,,,,,PANASQuestions,,,,,,,
RMEBPD Clinical Cog Load (2.13.15) Laptop version (2),2911,1,"<?xml version=""1.0""?>\n<Clock xmlns:dt=""urn:schemas-microsoft-com:datatypes""><Description dt:dt=""string"">E-Prime Primary Realtime Clock</Description><StartTime><Timestamp dt:dt=""int"">0</Timestamp><DateUtc dt:dt=""string"">2018-03-23T19:26:33Z</DateUtc></StartTime><FrequencyChanges><FrequencyChange><Frequency dt:dt=""r8"">2922933</Frequency><Timestamp dt:dt=""r8"">775629214389</Timestamp><Current dt:dt=""r8"">0</Current><DateUtc dt:dt=""string"">2018-03-23T19:26:33Z</DateUtc></FrequencyChange></FrequencyChanges></Clock>\n",RMEBPD Clinical Cog Load (2.13.15) Laptop version (2)-2911-1,60.006,1.0.0.451,Keyboard,1,PW,-1759284922,Full,3.0.3.60,3.0.3.60,3/23/2018,3/23/2018 19:26,15:26:34,3.0.3.43,4,,,,,,,,,?,,4,1,4,,,,,,,,,,,,,Keyboard,2346,843363,,PANAS,,,,,,,,,,BlockList,,,,,,,,,,,,,14,,,,,,,,,,,,,,,PANAS14.bmp,,,,,,,,,,,,14,2,36,Keyboard,2,593,870758,PANASProc,,,,,,,,,,,,,PANASQuestions,,,,,,,
