ExperimentName,Subject,Session,Clock.Information,DataFile.Basename,Display.RefreshRate,ExperimentVersion,goodbye.DEVICE,Group,Initials,RandomSeed,RuntimeCapabilities,RuntimeVersion,RuntimeVersionExpected,SessionDate,SessionStartDateTimeUtc,SessionTime,StudioVersion,Block,AnsAbility.DEVICE,AnsAbility.RESP,AnsAbility.RT,AnsAbility.RTTime,AnsHonest.DEVICE,AnsHonest.RESP,AnsHonest.RT,AnsHonest.RTTime,Attribute1,BeginWARN.DEVICE,BlockList,BlockList.Cycle,BlockList.Sample,colorinstruc.DEVICE,Instruct.DEVICE,LoadInstruct.DEVICE,NumberRecall1.ACC,NumberRecall1.CRESP,NumberRecall1.DEVICE,NumberRecall1.DurationError,NumberRecall1.OnsetDelay,NumberRecall1.OnsetTime,NumberRecall1.RESP,NumberRecall1.RT,NumberRecall1.RTTime,PANASnext.DEVICE,PANASnext.RT,PANASnext.RTTime,PracWarn.DEVICE,Procedure[Block],RMEStim1.ACC,RMEStim1.CRESP,RMEStim1.DEVICE,RMEStim1.DurationError,RMEStim1.OnsetDelay,RMEStim1.OnsetTime,RMEStim1.RESP,RMEStim1.RT,RMEStim1.RTTime,Running[Block],Slide2.ACC,Slide2.CRESP,Slide2.DEVICE,Slide2.DurationError,Slide2.OnsetDelay,Slide2.OnsetTime,Slide2.RESP,Slide2.RT,Slide2.RTTime,STAInext.DEVICE,STAInext.RT,STAInext.RTTime,Trial,colordiscrim,colordiscrim.Cycle,colordiscrim.Sample,colortask.ACC,colortask.CRESP,colortask.DEVICE,colortask.DurationError,colortask.OnsetDelay,colortask.OnsetTime,colortask.RESP,colortask.RT,colortask.RTTime,CorrectAnswer,correctanswernum,filename,NumberRecall.ACC,NumberRecall.CRESP,NumberRecall.DEVICE,NumberRecall.DurationError,NumberRecall.OnsetDelay,NumberRecall.OnsetTime,NumberRecall.RESP,NumberRecall.RT,NumberRecall.RTTime,Numbers,NumRecall,PANASQuestions,PANASQuestions.Cycle,PANASQuestions.Sample,PANASStim.DEVICE,PANASStim.RESP,PANASStim.RT,PANASStim.RTTime,Procedure[Trial],RMEStim.ACC,RMEStim.CRESP,RMEStim.DEVICE,RMEStim.DurationError,RMEStim.OnsetDelay,RMEStim.OnsetTime,RMEStim.RESP,RMEStim.RT,RMEStim.RTTime,RMETrialList,RMETrialList.Cycle,RMETrialList.Sample,Running[Trial],STAIQuestions,STAIQuestions.Cycle,STAIQuestions.Sample,STAIStim.DEVICE,STAIStim.RESP,STAIStim.RT,STAIStim.RTTime
RMEBPD Clinical Cog Load (2.13.15) Laptop version (2),2989,1,"<?xml version=""1.0""?>\n<Clock xmlns:dt=""urn:schemas-microsoft-com:datatypes""><Description dt:dt=""string"">E-Prime Primary Realtime Clock</Description><StartTime><Timestamp dt:dt=""int"">0</Timestamp><DateUtc dt:dt=""string"">2019-02-06T17:09:39Z</DateUtc></StartTime><FrequencyChanges><FrequencyChange><Frequency dt:dt=""r8"">2922931</Frequency><Timestamp dt:dt=""r8"">3372907052090</Timestamp><Current dt:dt=""r8"">0</Current><DateUtc dt:dt=""string"">2019-02-06T17:09:39Z</DateUtc></FrequencyChange></FrequencyChanges></Clock>\n",RMEBPD Clinical Cog Load (2.13.15) Laptop version (2)-2989-1,60.006,1.0.0.476,Keyboard,1,MZ,1358081430,Full,3.0.3.60,3.0.3.60,2/6/2019,2/6/2019 17:09,12:09:40,3.0.3.43,1,,,,,,,,,?,,1,1,1,,,,,,,,,,,,,,,,,STAI,,,,,,,,,,BlockList,,,,,,,,,,Keyboard,1201723,1425968,1,,,,,,,,,,,,,,,STAI01.bmp,,,,,,,,,,,,,,,,,,,STAIProc,,,,,,,,,,,,,STAIQuestions,1,1,1,Keyboard,3,14219,1440271
RMEBPD Clinical Cog Load (2.13.15) Laptop version (2),2989,1,"<?xml version=""1.0""?>\n<Clock xmlns:dt=""urn:schemas-microsoft-com:datatypes""><Description dt:dt=""string"">E-Prime Primary Realtime Clock</Description><StartTime><Timestamp dt:dt=""int"">0</Timestamp><DateUtc dt:dt=""string"">2019-02-06T17:09:39Z</DateUtc></StartTime><FrequencyChanges><FrequencyChange><Frequency dt:dt=""r8"">2922931</Frequency><Timestamp dt:dt=""r8"">3372907052090</Timestamp><Current dt:dt=""r8"">0</Current><DateUtc dt:dt=""string"">2019-02-06T17:09:39Z</DateUtc></FrequencyChange></FrequencyChanges></Clock>\n",RMEBPD Clinical Cog Load (2.13.15) Laptop version (2)-2989-1,60.006,1.0.0.476,Keyboard,1,MZ,1358081430,Full,3.0.3.60,3.0.3.60,2/6/2019,2/6/2019 17:09,12:09:40,3.0.3.43,1,,,,,,,,,?,,1,1,1,,,,,,,,,,,,,,,,,STAI,,,,,,,,,,BlockList,,,,,,,,,,Keyboard,1201723,1425968,2,,,,,,,,,,,,,,,STAI02.bmp,,,,,,,,,,,,,,,,,,,STAIProc,,,,,,,,,,,,,STAIQuestions,2,1,2,Keyboard,4,3523,1443857
RMEBPD Clinical Cog Load (2.13.15) Laptop version (2),2989,1,"<?xml version=""1.0""?>\n<Clock xmlns:dt=""urn:schemas-microsoft-com:datatypes""><Description dt:dt=""string"">E-Prime Primary Realtime Clock</Description><StartTime><Timestamp dt:dt=""int"">0</Timestamp><DateUtc dt:dt=""string"">2019-02-06T17:09:39Z</DateUtc></StartTime><FrequencyChanges><FrequencyChange><Frequency dt:dt=""r8"">2922931</Frequency><Timestamp dt:dt=""r8"">3372907052090</Timestamp><Current dt:dt=""r8"">0</Current><DateUtc dt:dt=""string"">2019-02-06T17:09:39Z</DateUtc></FrequencyChange></FrequencyChanges></Clock>\n",RMEBPD Clinical Cog Load (2.13.15) Laptop version (2)-2989-1,60.006,1.0.0.476,Keyboard,1,MZ,1358081430,Full,3.0.3.60,3.0.3.60,2/6/2019,2/6/2019 17:09,12:09:40,3.0.3.43,1,,,,,,,,,?,,1,1,1,,,,,,,,,,,,,,,,,STAI,,,,,,,,,,BlockList,,,,,,,,,,Keyboard,1201723,1425968,3,,,,,,,,,,,,,,,STAI03.bmp,,,,,,,,,,,,,,,,,,,STAIProc,,,,,,,,,,,,,STAIQuestions,3,1,3,Keyboard,1,10362,1454279
RMEBPD Clinical Cog Load (2.13.15) Laptop version (2),2989,1,"<?xml version=""1.0""?>\n<Clock xmlns:dt=""urn:schemas-microsoft-com:datatypes""><Description dt:dt=""string"">E-Prime Primary Realtime Clock</Description><StartTime><Timestamp dt:dt=""int"">0</Timestamp><DateUtc dt:dt=""string"">2019-02-06T17:09:39Z</DateUtc></StartTime><FrequencyChanges><FrequencyChange><Frequency dt:dt=""r8"">2922931</Frequency><Timestamp dt:dt=""r8"">3372907052090</Timestamp><Current dt:dt=""r8"">0</Current><DateUtc dt:dt=""string"">2019-02-06T17:09:39Z</DateUtc></FrequencyChange></FrequencyChanges></Clock>\n",RMEBPD Clinical Cog Load (2.13.15) Laptop version (2)-2989-1,60.006,1.0.0.476,Keyboard,1,MZ,1358081430,Full,3.0.3.60,3.0.3.60,2/6/2019,2/6/2019 17:09,12:09:40,3.0.3.43,1,,,,,,,,,?,,1,1,1,,,,,,,,,,,,,,,,,STAI,,,,,,,,,,BlockList,,,,,,,,,,Keyboard,1201723,1425968,4,,,,,,,,,,,,,,,STAI04.bmp,,,,,,,,,,,,,,,,,,,STAIProc,,,,,,,,,,,,,STAIQuestions,4,1,4,Keyboard,1,2475,1456825
RMEBPD Clinical Cog Load (2.13.15) Laptop version (2),2989,1,"<?xml version=""1.0""?>\n<Clock xmlns:dt=""urn:schemas-microsoft-com:datatypes""><Description dt:dt=""string"">E-Prime Primary Realtime Clock</Description><StartTime><Timestamp dt:dt=""int"">0</Timestamp><DateUtc dt:dt=""string"">2019-02-06T17:09:39Z</DateUtc></StartTime><FrequencyChanges><FrequencyChange><Frequency dt:dt=""r8"">2922931</Frequency><Timestamp dt:dt=""r8"">3372907052090</Timestamp><Current dt:dt=""r8"">0</Current><DateUtc dt:dt=""string"">2019-02-06T17:09:39Z</DateUtc></FrequencyChange></FrequencyChanges></Clock>\n",RMEBPD Clinical Cog Load (2.13.15) Laptop version (2)-2989-1,60.006,1.0.0.476,Keyboard,1,MZ,1358081430,Full,3.0.3.60,3.0.3.60,2/6/2019,2/6/2019 17:09,12:09:40,3.0.3.43,1,,,,,,,,,?,,1,1,1,,,,,,,,,,,,,,,,,STAI,,,,,,,,,,BlockList,,,,,,,,,,Keyboard,1201723,1425968,5,,,,,,,,,,,,,,,STAI05.bmp,,,,,,,,,,,,,,,,,,,STAIProc,,,,,,,,,,,,,STAIQuestions,5,1,5,Keyboard,3,2266,1459149
RMEBPD Clinical Cog Load (2.13.15) Laptop version (2),2989,1,"<?xml version=""1.0""?>\n<Clock xmlns:dt=""urn:schemas-microsoft-com:datatypes""><Description dt:dt=""string"">E-Prime Primary Realtime Clock</Description><StartTime><Timestamp dt:dt=""int"">0</Timestamp><DateUtc dt:dt=""string"">2019-02-06T17:09:39Z</DateUtc></StartTime><FrequencyChanges><FrequencyChange><Frequency dt:dt=""r8"">2922931</Frequency><Timestamp dt:dt=""r8"">3372907052090</Timestamp><Current dt:dt=""r8"">0</Current><DateUtc dt:dt=""string"">2019-02-06T17:09:39Z</DateUtc></FrequencyChange></FrequencyChanges></Clock>\n",RMEBPD Clinical Cog Load (2.13.15) Laptop version (2)-2989-1,60.006,1.0.0.476,Keyboard,1,MZ,1358081430,Full,3.0.3.60,3.0.3.60,2/6/2019,2/6/2019 17:09,12:09:40,3.0.3.43,1,,,,,,,,,?,,1,1,1,,,,,,,,,,,,,,,,,STAI,,,,,,,,,,BlockList,,,,,,,,,,Keyboard,1201723,1425968,6,,,,,,,,,,,,,,,STAI06.bmp,,,,,,,,,,,,,,,,,,,STAIProc,,,,,,,,,,,,,STAIQuestions,6,1,6,Keyboard,1,2277,1461476
RMEBPD Clinical Cog Load (2.13.15) Laptop version (2),2989,1,"<?xml version=""1.0""?>\n<Clock xmlns:dt=""urn:schemas-microsoft-com:datatypes""><Description dt:dt=""string"">E-Prime Primary Realtime Clock</Description><StartTime><Timestamp dt:dt=""int"">0</Timestamp><DateUtc dt:dt=""string"">2019-02-06T17:09:39Z</DateUtc></StartTime><FrequencyChanges><FrequencyChange><Frequency dt:dt=""r8"">2922931</Frequency><Timestamp dt:dt=""r8"">3372907052090</Timestamp><Current dt:dt=""r8"">0</Current><DateUtc dt:dt=""string"">2019-02-06T17:09:39Z</DateUtc></FrequencyChange></FrequencyChanges></Clock>\n",RMEBPD Clinical Cog Load (2.13.15) Laptop version (2)-2989-1,60.006,1.0.0.476,Keyboard,1,MZ,1358081430,Full,3.0.3.60,3.0.3.60,2/6/2019,2/6/2019 17:09,12:09:40,3.0.3.43,1,,,,,,,,,?,,1,1,1,,,,,,,,,,,,,,,,,STAI,,,,,,,,,,BlockList,,,,,,,,,,Keyboard,1201723,1425968,7,,,,,,,,,,,,,,,STAI07.bmp,,,,,,,,,,,,,,,,,,,STAIProc,,,,,,,,,,,,,STAIQuestions,7,1,7,Keyboard,2,8429,1469961
RMEBPD Clinical Cog Load (2.13.15) Laptop version (2),2989,1,"<?xml version=""1.0""?>\n<Clock xmlns:dt=""urn:schemas-microsoft-com:datatypes""><Description dt:dt=""string"">E-Prime Primary Realtime Clock</Description><StartTime><Timestamp dt:dt=""int"">0</Timestamp><DateUtc dt:dt=""string"">2019-02-06T17:09:39Z</DateUtc></StartTime><FrequencyChanges><FrequencyChange><Frequency dt:dt=""r8"">2922931</Frequency><Timestamp dt:dt=""r8"">3372907052090</Timestamp><Current dt:dt=""r8"">0</Current><DateUtc dt:dt=""string"">2019-02-06T17:09:39Z</DateUtc></FrequencyChange></FrequencyChanges></Clock>\n",RMEBPD Clinical Cog Load (2.13.15) Laptop version (2)-2989-1,60.006,1.0.0.476,Keyboard,1,MZ,1358081430,Full,3.0.3.60,3.0.3.60,2/6/2019,2/6/2019 17:09,12:09:40,3.0.3.43,1,,,,,,,,,?,,1,1,1,,,,,,,,,,,,,,,,,STAI,,,,,,,,,,BlockList,,,,,,,,,,Keyboard,1201723,1425968,8,,,,,,,,,,,,,,,STAI08.bmp,,,,,,,,,,,,,,,,,,,STAIProc,,,,,,,,,,,,,STAIQuestions,8,1,8,Keyboard,4,1852,1471867
RMEBPD Clinical Cog Load (2.13.15) Laptop version (2),2989,1,"<?xml version=""1.0""?>\n<Clock xmlns:dt=""urn:schemas-microsoft-com:datatypes""><Description dt:dt=""string"">E-Prime Primary Realtime Clock</Description><StartTime><Timestamp dt:dt=""int"">0</Timestamp><DateUtc dt:dt=""string"">2019-02-06T17:09:39Z</DateUtc></StartTime><FrequencyChanges><FrequencyChange><Frequency dt:dt=""r8"">2922931</Frequency><Timestamp dt:dt=""r8"">3372907052090</Timestamp><Current dt:dt=""r8"">0</Current><DateUtc dt:dt=""string"">2019-02-06T17:09:39Z</DateUtc></FrequencyChange></FrequencyChanges></Clock>\n",RMEBPD Clinical Cog Load (2.13.15) Laptop version (2)-2989-1,60.006,1.0.0.476,Keyboard,1,MZ,1358081430,Full,3.0.3.60,3.0.3.60,2/6/2019,2/6/2019 17:09,12:09:40,3.0.3.43,1,,,,,,,,,?,,1,1,1,,,,,,,,,,,,,,,,,STAI,,,,,,,,,,BlockList,,,,,,,,,,Keyboard,1201723,1425968,9,,,,,,,,,,,,,,,STAI09.bmp,,,,,,,,,,,,,,,,,,,STAIProc,,,,,,,,,,,,,STAIQuestions,9,1,9,Keyboard,1,4899,1476830
RMEBPD Clinical Cog Load (2.13.15) Laptop version (2),2989,1,"<?xml version=""1.0""?>\n<Clock xmlns:dt=""urn:schemas-microsoft-com:datatypes""><Description dt:dt=""string"">E-Prime Primary Realtime Clock</Description><StartTime><Timestamp dt:dt=""int"">0</Timestamp><DateUtc dt:dt=""string"">2019-02-06T17:09:39Z</DateUtc></StartTime><FrequencyChanges><FrequencyChange><Frequency dt:dt=""r8"">2922931</Frequency><Timestamp dt:dt=""r8"">3372907052090</Timestamp><Current dt:dt=""r8"">0</Current><DateUtc dt:dt=""string"">2019-02-06T17:09:39Z</DateUtc></FrequencyChange></FrequencyChanges></Clock>\n",RMEBPD Clinical Cog Load (2.13.15) Laptop version (2)-2989-1,60.006,1.0.0.476,Keyboard,1,MZ,1358081430,Full,3.0.3.60,3.0.3.60,2/6/2019,2/6/2019 17:09,12:09:40,3.0.3.43,1,,,,,,,,,?,,1,1,1,,,,,,,,,,,,,,,,,STAI,,,,,,,,,,BlockList,,,,,,,,,,Keyboard,1201723,1425968,10,,,,,,,,,,,,,,,STAI10.bmp,,,,,,,,,,,,,,,,,,,STAIProc,,,,,,,,,,,,,STAIQuestions,10,1,10,Keyboard,4,2629,1479526
RMEBPD Clinical Cog Load (2.13.15) Laptop version (2),2989,1,"<?xml version=""1.0""?>\n<Clock xmlns:dt=""urn:schemas-microsoft-com:datatypes""><Description dt:dt=""string"">E-Prime Primary Realtime Clock</Description><StartTime><Timestamp dt:dt=""int"">0</Timestamp><DateUtc dt:dt=""string"">2019-02-06T17:09:39Z</DateUtc></StartTime><FrequencyChanges><FrequencyChange><Frequency dt:dt=""r8"">2922931</Frequency><Timestamp dt:dt=""r8"">3372907052090</Timestamp><Current dt:dt=""r8"">0</Current><DateUtc dt:dt=""string"">2019-02-06T17:09:39Z</DateUtc></FrequencyChange></FrequencyChanges></Clock>\n",RMEBPD Clinical Cog Load (2.13.15) Laptop version (2)-2989-1,60.006,1.0.0.476,Keyboard,1,MZ,1358081430,Full,3.0.3.60,3.0.3.60,2/6/2019,2/6/2019 17:09,12:09:40,3.0.3.43,1,,,,,,,,,?,,1,1,1,,,,,,,,,,,,,,,,,STAI,,,,,,,,,,BlockList,,,,,,,,,,Keyboard,1201723,1425968,11,,,,,,,,,,,,,,,STAI11.bmp,,,,,,,,,,,,,,,,,,,STAIProc,,,,,,,,,,,,,STAIQuestions,11,1,11,Keyboard,3,1796,1481393
RMEBPD Clinical Cog Load (2.13.15) Laptop version (2),2989,1,"<?xml version=""1.0""?>\n<Clock xmlns:dt=""urn:schemas-microsoft-com:datatypes""><Description dt:dt=""string"">E-Prime Primary Realtime Clock</Description><StartTime><Timestamp dt:dt=""int"">0</Timestamp><DateUtc dt:dt=""string"">2019-02-06T17:09:39Z</DateUtc></StartTime><FrequencyChanges><FrequencyChange><Frequency dt:dt=""r8"">2922931</Frequency><Timestamp dt:dt=""r8"">3372907052090</Timestamp><Current dt:dt=""r8"">0</Current><DateUtc dt:dt=""string"">2019-02-06T17:09:39Z</DateUtc></FrequencyChange></FrequencyChanges></Clock>\n",RMEBPD Clinical Cog Load (2.13.15) Laptop version (2)-2989-1,60.006,1.0.0.476,Keyboard,1,MZ,1358081430,Full,3.0.3.60,3.0.3.60,2/6/2019,2/6/2019 17:09,12:09:40,3.0.3.43,1,,,,,,,,,?,,1,1,1,,,,,,,,,,,,,,,,,STAI,,,,,,,,,,BlockList,,,,,,,,,,Keyboard,1201723,1425968,12,,,,,,,,,,,,,,,STAI12.bmp,,,,,,,,,,,,,,,,,,,STAIProc,,,,,,,,,,,,,STAIQuestions,12,1,12,Keyboard,1,2020,1483467
RMEBPD Clinical Cog Load (2.13.15) Laptop version (2),2989,1,"<?xml version=""1.0""?>\n<Clock xmlns:dt=""urn:schemas-microsoft-com:datatypes""><Description dt:dt=""string"">E-Prime Primary Realtime Clock</Description><StartTime><Timestamp dt:dt=""int"">0</Timestamp><DateUtc dt:dt=""string"">2019-02-06T17:09:39Z</DateUtc></StartTime><FrequencyChanges><FrequencyChange><Frequency dt:dt=""r8"">2922931</Frequency><Timestamp dt:dt=""r8"">3372907052090</Timestamp><Current dt:dt=""r8"">0</Current><DateUtc dt:dt=""string"">2019-02-06T17:09:39Z</DateUtc></FrequencyChange></FrequencyChanges></Clock>\n",RMEBPD Clinical Cog Load (2.13.15) Laptop version (2)-2989-1,60.006,1.0.0.476,Keyboard,1,MZ,1358081430,Full,3.0.3.60,3.0.3.60,2/6/2019,2/6/2019 17:09,12:09:40,3.0.3.43,1,,,,,,,,,?,,1,1,1,,,,,,,,,,,,,,,,,STAI,,,,,,,,,,BlockList,,,,,,,,,,Keyboard,1201723,1425968,13,,,,,,,,,,,,,,,STAI13.bmp,,,,,,,,,,,,,,,,,,,STAIProc,,,,,,,,,,,,,STAIQuestions,13,1,13,Keyboard,1,1088,1484602
RMEBPD Clinical Cog Load (2.13.15) Laptop version (2),2989,1,"<?xml version=""1.0""?>\n<Clock xmlns:dt=""urn:schemas-microsoft-com:datatypes""><Description dt:dt=""string"">E-Prime Primary Realtime Clock</Description><StartTime><Timestamp dt:dt=""int"">0</Timestamp><DateUtc dt:dt=""string"">2019-02-06T17:09:39Z</DateUtc></StartTime><FrequencyChanges><FrequencyChange><Frequency dt:dt=""r8"">2922931</Frequency><Timestamp dt:dt=""r8"">3372907052090</Timestamp><Current dt:dt=""r8"">0</Current><DateUtc dt:dt=""string"">2019-02-06T17:09:39Z</DateUtc></FrequencyChange></FrequencyChanges></Clock>\n",RMEBPD Clinical Cog Load (2.13.15) Laptop version (2)-2989-1,60.006,1.0.0.476,Keyboard,1,MZ,1358081430,Full,3.0.3.60,3.0.3.60,2/6/2019,2/6/2019 17:09,12:09:40,3.0.3.43,1,,,,,,,,,?,,1,1,1,,,,,,,,,,,,,,,,,STAI,,,,,,,,,,BlockList,,,,,,,,,,Keyboard,1201723,1425968,14,,,,,,,,,,,,,,,STAI14.bmp,,,,,,,,,,,,,,,,,,,STAIProc,,,,,,,,,,,,,STAIQuestions,14,1,14,Keyboard,1,1931,1486578
RMEBPD Clinical Cog Load (2.13.15) Laptop version (2),2989,1,"<?xml version=""1.0""?>\n<Clock xmlns:dt=""urn:schemas-microsoft-com:datatypes""><Description dt:dt=""string"">E-Prime Primary Realtime Clock</Description><StartTime><Timestamp dt:dt=""int"">0</Timestamp><DateUtc dt:dt=""string"">2019-02-06T17:09:39Z</DateUtc></StartTime><FrequencyChanges><FrequencyChange><Frequency dt:dt=""r8"">2922931</Frequency><Timestamp dt:dt=""r8"">3372907052090</Timestamp><Current dt:dt=""r8"">0</Current><DateUtc dt:dt=""string"">2019-02-06T17:09:39Z</DateUtc></FrequencyChange></FrequencyChanges></Clock>\n",RMEBPD Clinical Cog Load (2.13.15) Laptop version (2)-2989-1,60.006,1.0.0.476,Keyboard,1,MZ,1358081430,Full,3.0.3.60,3.0.3.60,2/6/2019,2/6/2019 17:09,12:09:40,3.0.3.43,1,,,,,,,,,?,,1,1,1,,,,,,,,,,,,,,,,,STAI,,,,,,,,,,BlockList,,,,,,,,,,Keyboard,1201723,1425968,15,,,,,,,,,,,,,,,STAI15.bmp,,,,,,,,,,,,,,,,,,,STAIProc,,,,,,,,,,,,,STAIQuestions,15,1,15,Keyboard,4,5463,1492093
RMEBPD Clinical Cog Load (2.13.15) Laptop version (2),2989,1,"<?xml version=""1.0""?>\n<Clock xmlns:dt=""urn:schemas-microsoft-com:datatypes""><Description dt:dt=""string"">E-Prime Primary Realtime Clock</Description><StartTime><Timestamp dt:dt=""int"">0</Timestamp><DateUtc dt:dt=""string"">2019-02-06T17:09:39Z</DateUtc></StartTime><FrequencyChanges><FrequencyChange><Frequency dt:dt=""r8"">2922931</Frequency><Timestamp dt:dt=""r8"">3372907052090</Timestamp><Current dt:dt=""r8"">0</Current><DateUtc dt:dt=""string"">2019-02-06T17:09:39Z</DateUtc></FrequencyChange></FrequencyChanges></Clock>\n",RMEBPD Clinical Cog Load (2.13.15) Laptop version (2)-2989-1,60.006,1.0.0.476,Keyboard,1,MZ,1358081430,Full,3.0.3.60,3.0.3.60,2/6/2019,2/6/2019 17:09,12:09:40,3.0.3.43,1,,,,,,,,,?,,1,1,1,,,,,,,,,,,,,,,,,STAI,,,,,,,,,,BlockList,,,,,,,,,,Keyboard,1201723,1425968,16,,,,,,,,,,,,,,,STAI16.bmp,,,,,,,,,,,,,,,,,,,STAIProc,,,,,,,,,,,,,STAIQuestions,16,1,16,Keyboard,3,1113,1493326
RMEBPD Clinical Cog Load (2.13.15) Laptop version (2),2989,1,"<?xml version=""1.0""?>\n<Clock xmlns:dt=""urn:schemas-microsoft-com:datatypes""><Description dt:dt=""string"">E-Prime Primary Realtime Clock</Description><StartTime><Timestamp dt:dt=""int"">0</Timestamp><DateUtc dt:dt=""string"">2019-02-06T17:09:39Z</DateUtc></StartTime><FrequencyChanges><FrequencyChange><Frequency dt:dt=""r8"">2922931</Frequency><Timestamp dt:dt=""r8"">3372907052090</Timestamp><Current dt:dt=""r8"">0</Current><DateUtc dt:dt=""string"">2019-02-06T17:09:39Z</DateUtc></FrequencyChange></FrequencyChanges></Clock>\n",RMEBPD Clinical Cog Load (2.13.15) Laptop version (2)-2989-1,60.006,1.0.0.476,Keyboard,1,MZ,1358081430,Full,3.0.3.60,3.0.3.60,2/6/2019,2/6/2019 17:09,12:09:40,3.0.3.43,1,,,,,,,,,?,,1,1,1,,,,,,,,,,,,,,,,,STAI,,,,,,,,,,BlockList,,,,,,,,,,Keyboard,1201723,1425968,17,,,,,,,,,,,,,,,STAI17.bmp,,,,,,,,,,,,,,,,,,,STAIProc,,,,,,,,,,,,,STAIQuestions,17,1,17,Keyboard,2,15243,1508606
RMEBPD Clinical Cog Load (2.13.15) Laptop version (2),2989,1,"<?xml version=""1.0""?>\n<Clock xmlns:dt=""urn:schemas-microsoft-com:datatypes""><Description dt:dt=""string"">E-Prime Primary Realtime Clock</Description><StartTime><Timestamp dt:dt=""int"">0</Timestamp><DateUtc dt:dt=""string"">2019-02-06T17:09:39Z</DateUtc></StartTime><FrequencyChanges><FrequencyChange><Frequency dt:dt=""r8"">2922931</Frequency><Timestamp dt:dt=""r8"">3372907052090</Timestamp><Current dt:dt=""r8"">0</Current><DateUtc dt:dt=""string"">2019-02-06T17:09:39Z</DateUtc></FrequencyChange></FrequencyChanges></Clock>\n",RMEBPD Clinical Cog Load (2.13.15) Laptop version (2)-2989-1,60.006,1.0.0.476,Keyboard,1,MZ,1358081430,Full,3.0.3.60,3.0.3.60,2/6/2019,2/6/2019 17:09,12:09:40,3.0.3.43,1,,,,,,,,,?,,1,1,1,,,,,,,,,,,,,,,,,STAI,,,,,,,,,,BlockList,,,,,,,,,,Keyboard,1201723,1425968,18,,,,,,,,,,,,,,,STAI18.bmp,,,,,,,,,,,,,,,,,,,STAIProc,,,,,,,,,,,,,STAIQuestions,18,1,18,Keyboard,1,3827,1512472
RMEBPD Clinical Cog Load (2.13.15) Laptop version (2),2989,1,"<?xml version=""1.0""?>\n<Clock xmlns:dt=""urn:schemas-microsoft-com:datatypes""><Description dt:dt=""string"">E-Prime Primary Realtime Clock</Description><StartTime><Timestamp dt:dt=""int"">0</Timestamp><DateUtc dt:dt=""string"">2019-02-06T17:09:39Z</DateUtc></StartTime><FrequencyChanges><FrequencyChange><Frequency dt:dt=""r8"">2922931</Frequency><Timestamp dt:dt=""r8"">3372907052090</Timestamp><Current dt:dt=""r8"">0</Current><DateUtc dt:dt=""string"">2019-02-06T17:09:39Z</DateUtc></FrequencyChange></FrequencyChanges></Clock>\n",RMEBPD Clinical Cog Load (2.13.15) Laptop version (2)-2989-1,60.006,1.0.0.476,Keyboard,1,MZ,1358081430,Full,3.0.3.60,3.0.3.60,2/6/2019,2/6/2019 17:09,12:09:40,3.0.3.43,1,,,,,,,,,?,,1,1,1,,,,,,,,,,,,,,,,,STAI,,,,,,,,,,BlockList,,,,,,,,,,Keyboard,1201723,1425968,19,,,,,,,,,,,,,,,STAI19.bmp,,,,,,,,,,,,,,,,,,,STAIProc,,,,,,,,,,,,,STAIQuestions,19,1,19,Keyboard,2,59655,1572166
RMEBPD Clinical Cog Load (2.13.15) Laptop version (2),2989,1,"<?xml version=""1.0""?>\n<Clock xmlns:dt=""urn:schemas-microsoft-com:datatypes""><Description dt:dt=""string"">E-Prime Primary Realtime Clock</Description><StartTime><Timestamp dt:dt=""int"">0</Timestamp><DateUtc dt:dt=""string"">2019-02-06T17:09:39Z</DateUtc></StartTime><FrequencyChanges><FrequencyChange><Frequency dt:dt=""r8"">2922931</Frequency><Timestamp dt:dt=""r8"">3372907052090</Timestamp><Current dt:dt=""r8"">0</Current><DateUtc dt:dt=""string"">2019-02-06T17:09:39Z</DateUtc></FrequencyChange></FrequencyChanges></Clock>\n",RMEBPD Clinical Cog Load (2.13.15) Laptop version (2)-2989-1,60.006,1.0.0.476,Keyboard,1,MZ,1358081430,Full,3.0.3.60,3.0.3.60,2/6/2019,2/6/2019 17:09,12:09:40,3.0.3.43,1,,,,,,,,,?,,1,1,1,,,,,,,,,,,,,,,,,STAI,,,,,,,,,,BlockList,,,,,,,,,,Keyboard,1201723,1425968,20,,,,,,,,,,,,,,,STAI20.bmp,,,,,,,,,,,,,,,,,,,STAIProc,,,,,,,,,,,,,STAIQuestions,20,1,20,Keyboard,3,1560,1573765
RMEBPD Clinical Cog Load (2.13.15) Laptop version (2),2989,1,"<?xml version=""1.0""?>\n<Clock xmlns:dt=""urn:schemas-microsoft-com:datatypes""><Description dt:dt=""string"">E-Prime Primary Realtime Clock</Description><StartTime><Timestamp dt:dt=""int"">0</Timestamp><DateUtc dt:dt=""string"">2019-02-06T17:09:39Z</DateUtc></StartTime><FrequencyChanges><FrequencyChange><Frequency dt:dt=""r8"">2922931</Frequency><Timestamp dt:dt=""r8"">3372907052090</Timestamp><Current dt:dt=""r8"">0</Current><DateUtc dt:dt=""string"">2019-02-06T17:09:39Z</DateUtc></FrequencyChange></FrequencyChanges></Clock>\n",RMEBPD Clinical Cog Load (2.13.15) Laptop version (2)-2989-1,60.006,1.0.0.476,Keyboard,1,MZ,1358081430,Full,3.0.3.60,3.0.3.60,2/6/2019,2/6/2019 17:09,12:09:40,3.0.3.43,2,,,,,,,,,?,,2,1,2,,,,,,,,,,,,,Keyboard,1522,1575311,,PANAS,,,,,,,,,,BlockList,,,,,,,,,,,,,1,,,,,,,,,,,,,,,PANAS01.bmp,,,,,,,,,,,,1,1,1,Keyboard,4,11070,1586442,PANASProc,,,,,,,,,,,,,PANASQuestions,,,,,,,
RMEBPD Clinical Cog Load (2.13.15) Laptop version (2),2989,1,"<?xml version=""1.0""?>\n<Clock xmlns:dt=""urn:schemas-microsoft-com:datatypes""><Description dt:dt=""string"">E-Prime Primary Realtime Clock</Description><StartTime><Timestamp dt:dt=""int"">0</Timestamp><DateUtc dt:dt=""string"">2019-02-06T17:09:39Z</DateUtc></StartTime><FrequencyChanges><FrequencyChange><Frequency dt:dt=""r8"">2922931</Frequency><Timestamp dt:dt=""r8"">3372907052090</Timestamp><Current dt:dt=""r8"">0</Current><DateUtc dt:dt=""string"">2019-02-06T17:09:39Z</DateUtc></FrequencyChange></FrequencyChanges></Clock>\n",RMEBPD Clinical Cog Load (2.13.15) Laptop version (2)-2989-1,60.006,1.0.0.476,Keyboard,1,MZ,1358081430,Full,3.0.3.60,3.0.3.60,2/6/2019,2/6/2019 17:09,12:09:40,3.0.3.43,2,,,,,,,,,?,,2,1,2,,,,,,,,,,,,,Keyboard,1522,1575311,,PANAS,,,,,,,,,,BlockList,,,,,,,,,,,,,2,,,,,,,,,,,,,,,PANAS02.bmp,,,,,,,,,,,,2,1,2,Keyboard,1,3415,1589969,PANASProc,,,,,,,,,,,,,PANASQuestions,,,,,,,
RMEBPD Clinical Cog Load (2.13.15) Laptop version (2),2989,1,"<?xml version=""1.0""?>\n<Clock xmlns:dt=""urn:schemas-microsoft-com:datatypes""><Description dt:dt=""string"">E-Prime Primary Realtime Clock</Description><StartTime><Timestamp dt:dt=""int"">0</Timestamp><DateUtc dt:dt=""string"">2019-02-06T17:09:39Z</DateUtc></StartTime><FrequencyChanges><FrequencyChange><Frequency dt:dt=""r8"">2922931</Frequency><Timestamp dt:dt=""r8"">3372907052090</Timestamp><Current dt:dt=""r8"">0</Current><DateUtc dt:dt=""string"">2019-02-06T17:09:39Z</DateUtc></FrequencyChange></FrequencyChanges></Clock>\n",RMEBPD Clinical Cog Load (2.13.15) Laptop version (2)-2989-1,60.006,1.0.0.476,Keyboard,1,MZ,1358081430,Full,3.0.3.60,3.0.3.60,2/6/2019,2/6/2019 17:09,12:09:40,3.0.3.43,2,,,,,,,,,?,,2,1,2,,,,,,,,,,,,,Keyboard,1522,1575311,,PANAS,,,,,,,,,,BlockList,,,,,,,,,,,,,3,,,,,,,,,,,,,,,PANAS03.bmp,,,,,,,,,,,,3,1,3,Keyboard,3,2431,1592468,PANASProc,,,,,,,,,,,,,PANASQuestions,,,,,,,
RMEBPD Clinical Cog Load (2.13.15) Laptop version (2),2989,1,"<?xml version=""1.0""?>\n<Clock xmlns:dt=""urn:schemas-microsoft-com:datatypes""><Description dt:dt=""string"">E-Prime Primary Realtime Clock</Description><StartTime><Timestamp dt:dt=""int"">0</Timestamp><DateUtc dt:dt=""string"">2019-02-06T17:09:39Z</DateUtc></StartTime><FrequencyChanges><FrequencyChange><Frequency dt:dt=""r8"">2922931</Frequency><Timestamp dt:dt=""r8"">3372907052090</Timestamp><Current dt:dt=""r8"">0</Current><DateUtc dt:dt=""string"">2019-02-06T17:09:39Z</DateUtc></FrequencyChange></FrequencyChanges></Clock>\n",RMEBPD Clinical Cog Load (2.13.15) Laptop version (2)-2989-1,60.006,1.0.0.476,Keyboard,1,MZ,1358081430,Full,3.0.3.60,3.0.3.60,2/6/2019,2/6/2019 17:09,12:09:40,3.0.3.43,2,,,,,,,,,?,,2,1,2,,,,,,,,,,,,,Keyboard,1522,1575311,,PANAS,,,,,,,,,,BlockList,,,,,,,,,,,,,4,,,,,,,,,,,,,,,PANAS04.bmp,,,,,,,,,,,,4,1,4,Keyboard,2,1142,1593662,PANASProc,,,,,,,,,,,,,PANASQuestions,,,,,,,
RMEBPD Clinical Cog Load (2.13.15) Laptop version (2),2989,1,"<?xml version=""1.0""?>\n<Clock xmlns:dt=""urn:schemas-microsoft-com:datatypes""><Description dt:dt=""string"">E-Prime Primary Realtime Clock</Description><StartTime><Timestamp dt:dt=""int"">0</Timestamp><DateUtc dt:dt=""string"">2019-02-06T17:09:39Z</DateUtc></StartTime><FrequencyChanges><FrequencyChange><Frequency dt:dt=""r8"">2922931</Frequency><Timestamp dt:dt=""r8"">3372907052090</Timestamp><Current dt:dt=""r8"">0</Current><DateUtc dt:dt=""string"">2019-02-06T17:09:39Z</DateUtc></FrequencyChange></FrequencyChanges></Clock>\n",RMEBPD Clinical Cog Load (2.13.15) Laptop version (2)-2989-1,60.006,1.0.0.476,Keyboard,1,MZ,1358081430,Full,3.0.3.60,3.0.3.60,2/6/2019,2/6/2019 17:09,12:09:40,3.0.3.43,2,,,,,,,,,?,,2,1,2,,,,,,,,,,,,,Keyboard,1522,1575311,,PANAS,,,,,,,,,,BlockList,,,,,,,,,,,,,5,,,,,,,,,,,,,,,PANAS05.bmp,,,,,,,,,,,,5,1,5,Keyboard,4,1851,1595571,PANASProc,,,,,,,,,,,,,PANASQuestions,,,,,,,
RMEBPD Clinical Cog Load (2.13.15) Laptop version (2),2989,1,"<?xml version=""1.0""?>\n<Clock xmlns:dt=""urn:schemas-microsoft-com:datatypes""><Description dt:dt=""string"">E-Prime Primary Realtime Clock</Description><StartTime><Timestamp dt:dt=""int"">0</Timestamp><DateUtc dt:dt=""string"">2019-02-06T17:09:39Z</DateUtc></StartTime><FrequencyChanges><FrequencyChange><Frequency dt:dt=""r8"">2922931</Frequency><Timestamp dt:dt=""r8"">3372907052090</Timestamp><Current dt:dt=""r8"">0</Current><DateUtc dt:dt=""string"">2019-02-06T17:09:39Z</DateUtc></FrequencyChange></FrequencyChanges></Clock>\n",RMEBPD Clinical Cog Load (2.13.15) Laptop version (2)-2989-1,60.006,1.0.0.476,Keyboard,1,MZ,1358081430,Full,3.0.3.60,3.0.3.60,2/6/2019,2/6/2019 17:09,12:09:40,3.0.3.43,2,,,,,,,,,?,,2,1,2,,,,,,,,,,,,,Keyboard,1522,1575311,,PANAS,,,,,,,,,,BlockList,,,,,,,,,,,,,6,,,,,,,,,,,,,,,PANAS06.bmp,,,,,,,,,,,,6,1,6,Keyboard,1,2944,1598581,PANASProc,,,,,,,,,,,,,PANASQuestions,,,,,,,
RMEBPD Clinical Cog Load (2.13.15) Laptop version (2),2989,1,"<?xml version=""1.0""?>\n<Clock xmlns:dt=""urn:schemas-microsoft-com:datatypes""><Description dt:dt=""string"">E-Prime Primary Realtime Clock</Description><StartTime><Timestamp dt:dt=""int"">0</Timestamp><DateUtc dt:dt=""string"">2019-02-06T17:09:39Z</DateUtc></StartTime><FrequencyChanges><FrequencyChange><Frequency dt:dt=""r8"">2922931</Frequency><Timestamp dt:dt=""r8"">3372907052090</Timestamp><Current dt:dt=""r8"">0</Current><DateUtc dt:dt=""string"">2019-02-06T17:09:39Z</DateUtc></FrequencyChange></FrequencyChanges></Clock>\n",RMEBPD Clinical Cog Load (2.13.15) Laptop version (2)-2989-1,60.006,1.0.0.476,Keyboard,1,MZ,1358081430,Full,3.0.3.60,3.0.3.60,2/6/2019,2/6/2019 17:09,12:09:40,3.0.3.43,2,,,,,,,,,?,,2,1,2,,,,,,,,,,,,,Keyboard,1522,1575311,,PANAS,,,,,,,,,,BlockList,,,,,,,,,,,,,7,,,,,,,,,,,,,,,PANAS07.bmp,,,,,,,,,,,,7,1,7,Keyboard,3,2402,1601038,PANASProc,,,,,,,,,,,,,PANASQuestions,,,,,,,
RMEBPD Clinical Cog Load (2.13.15) Laptop version (2),2989,1,"<?xml version=""1.0""?>\n<Clock xmlns:dt=""urn:schemas-microsoft-com:datatypes""><Description dt:dt=""string"">E-Prime Primary Realtime Clock</Description><StartTime><Timestamp dt:dt=""int"">0</Timestamp><DateUtc dt:dt=""string"">2019-02-06T17:09:39Z</DateUtc></StartTime><FrequencyChanges><FrequencyChange><Frequency dt:dt=""r8"">2922931</Frequency><Timestamp dt:dt=""r8"">3372907052090</Timestamp><Current dt:dt=""r8"">0</Current><DateUtc dt:dt=""string"">2019-02-06T17:09:39Z</DateUtc></FrequencyChange></FrequencyChanges></Clock>\n",RMEBPD Clinical Cog Load (2.13.15) Laptop version (2)-2989-1,60.006,1.0.0.476,Keyboard,1,MZ,1358081430,Full,3.0.3.60,3.0.3.60,2/6/2019,2/6/2019 17:09,12:09:40,3.0.3.43,2,,,,,,,,,?,,2,1,2,,,,,,,,,,,,,Keyboard,1522,1575311,,PANAS,,,,,,,,,,BlockList,,,,,,,,,,,,,8,,,,,,,,,,,,,,,PANAS08.bmp,,,,,,,,,,,,8,1,8,Keyboard,1,1403,1602489,PANASProc,,,,,,,,,,,,,PANASQuestions,,,,,,,
RMEBPD Clinical Cog Load (2.13.15) Laptop version (2),2989,1,"<?xml version=""1.0""?>\n<Clock xmlns:dt=""urn:schemas-microsoft-com:datatypes""><Description dt:dt=""string"">E-Prime Primary Realtime Clock</Description><StartTime><Timestamp dt:dt=""int"">0</Timestamp><DateUtc dt:dt=""string"">2019-02-06T17:09:39Z</DateUtc></StartTime><FrequencyChanges><FrequencyChange><Frequency dt:dt=""r8"">2922931</Frequency><Timestamp dt:dt=""r8"">3372907052090</Timestamp><Current dt:dt=""r8"">0</Current><DateUtc dt:dt=""string"">2019-02-06T17:09:39Z</DateUtc></FrequencyChange></FrequencyChanges></Clock>\n",RMEBPD Clinical Cog Load (2.13.15) Laptop version (2)-2989-1,60.006,1.0.0.476,Keyboard,1,MZ,1358081430,Full,3.0.3.60,3.0.3.60,2/6/2019,2/6/2019 17:09,12:09:40,3.0.3.43,2,,,,,,,,,?,,2,1,2,,,,,,,,,,,,,Keyboard,1522,1575311,,PANAS,,,,,,,,,,BlockList,,,,,,,,,,,,,9,,,,,,,,,,,,,,,PANAS09.bmp,,,,,,,,,,,,9,1,9,Keyboard,1,1235,1603788,PANASProc,,,,,,,,,,,,,PANASQuestions,,,,,,,
RMEBPD Clinical Cog Load (2.13.15) Laptop version (2),2989,1,"<?xml version=""1.0""?>\n<Clock xmlns:dt=""urn:schemas-microsoft-com:datatypes""><Description dt:dt=""string"">E-Prime Primary Realtime Clock</Description><StartTime><Timestamp dt:dt=""int"">0</Timestamp><DateUtc dt:dt=""string"">2019-02-06T17:09:39Z</DateUtc></StartTime><FrequencyChanges><FrequencyChange><Frequency dt:dt=""r8"">2922931</Frequency><Timestamp dt:dt=""r8"">3372907052090</Timestamp><Current dt:dt=""r8"">0</Current><DateUtc dt:dt=""string"">2019-02-06T17:09:39Z</DateUtc></FrequencyChange></FrequencyChanges></Clock>\n",RMEBPD Clinical Cog Load (2.13.15) Laptop version (2)-2989-1,60.006,1.0.0.476,Keyboard,1,MZ,1358081430,Full,3.0.3.60,3.0.3.60,2/6/2019,2/6/2019 17:09,12:09:40,3.0.3.43,2,,,,,,,,,?,,2,1,2,,,,,,,,,,,,,Keyboard,1522,1575311,,PANAS,,,,,,,,,,BlockList,,,,,,,,,,,,,10,,,,,,,,,,,,,,,PANAS10.bmp,,,,,,,,,,,,10,1,10,Keyboard,3,4496,1608315,PANASProc,,,,,,,,,,,,,PANASQuestions,,,,,,,
RMEBPD Clinical Cog Load (2.13.15) Laptop version (2),2989,1,"<?xml version=""1.0""?>\n<Clock xmlns:dt=""urn:schemas-microsoft-com:datatypes""><Description dt:dt=""string"">E-Prime Primary Realtime Clock</Description><StartTime><Timestamp dt:dt=""int"">0</Timestamp><DateUtc dt:dt=""string"">2019-02-06T17:09:39Z</DateUtc></StartTime><FrequencyChanges><FrequencyChange><Frequency dt:dt=""r8"">2922931</Frequency><Timestamp dt:dt=""r8"">3372907052090</Timestamp><Current dt:dt=""r8"">0</Current><DateUtc dt:dt=""string"">2019-02-06T17:09:39Z</DateUtc></FrequencyChange></FrequencyChanges></Clock>\n",RMEBPD Clinical Cog Load (2.13.15) Laptop version (2)-2989-1,60.006,1.0.0.476,Keyboard,1,MZ,1358081430,Full,3.0.3.60,3.0.3.60,2/6/2019,2/6/2019 17:09,12:09:40,3.0.3.43,2,,,,,,,,,?,,2,1,2,,,,,,,,,,,,,Keyboard,1522,1575311,,PANAS,,,,,,,,,,BlockList,,,,,,,,,,,,,11,,,,,,,,,,,,,,,PANAS11.bmp,,,,,,,,,,,,11,1,11,Keyboard,3,2613,1610965,PANASProc,,,,,,,,,,,,,PANASQuestions,,,,,,,
RMEBPD Clinical Cog Load (2.13.15) Laptop version (2),2989,1,"<?xml version=""1.0""?>\n<Clock xmlns:dt=""urn:schemas-microsoft-com:datatypes""><Description dt:dt=""string"">E-Prime Primary Realtime Clock</Description><StartTime><Timestamp dt:dt=""int"">0</Timestamp><DateUtc dt:dt=""string"">2019-02-06T17:09:39Z</DateUtc></StartTime><FrequencyChanges><FrequencyChange><Frequency dt:dt=""r8"">2922931</Frequency><Timestamp dt:dt=""r8"">3372907052090</Timestamp><Current dt:dt=""r8"">0</Current><DateUtc dt:dt=""string"">2019-02-06T17:09:39Z</DateUtc></FrequencyChange></FrequencyChanges></Clock>\n",RMEBPD Clinical Cog Load (2.13.15) Laptop version (2)-2989-1,60.006,1.0.0.476,Keyboard,1,MZ,1358081430,Full,3.0.3.60,3.0.3.60,2/6/2019,2/6/2019 17:09,12:09:40,3.0.3.43,2,,,,,,,,,?,,2,1,2,,,,,,,,,,,,,Keyboard,1522,1575311,,PANAS,,,,,,,,,,BlockList,,,,,,,,,,,,,12,,,,,,,,,,,,,,,PANAS12.bmp,,,,,,,,,,,,12,1,12,Keyboard,1,2338,1613357,PANASProc,,,,,,,,,,,,,PANASQuestions,,,,,,,
RMEBPD Clinical Cog Load (2.13.15) Laptop version (2),2989,1,"<?xml version=""1.0""?>\n<Clock xmlns:dt=""urn:schemas-microsoft-com:datatypes""><Description dt:dt=""string"">E-Prime Primary Realtime Clock</Description><StartTime><Timestamp dt:dt=""int"">0</Timestamp><DateUtc dt:dt=""string"">2019-02-06T17:09:39Z</DateUtc></StartTime><FrequencyChanges><FrequencyChange><Frequency dt:dt=""r8"">2922931</Frequency><Timestamp dt:dt=""r8"">3372907052090</Timestamp><Current dt:dt=""r8"">0</Current><DateUtc dt:dt=""string"">2019-02-06T17:09:39Z</DateUtc></FrequencyChange></FrequencyChanges></Clock>\n",RMEBPD Clinical Cog Load (2.13.15) Laptop version (2)-2989-1,60.006,1.0.0.476,Keyboard,1,MZ,1358081430,Full,3.0.3.60,3.0.3.60,2/6/2019,2/6/2019 17:09,12:09:40,3.0.3.43,2,,,,,,,,,?,,2,1,2,,,,,,,,,,,,,Keyboard,1522,1575311,,PANAS,,,,,,,,,,BlockList,,,,,,,,,,,,,13,,,,,,,,,,,,,,,PANAS13.bmp,,,,,,,,,,,,13,1,13,Keyboard,2,2115,1615533,PANASProc,,,,,,,,,,,,,PANASQuestions,,,,,,,
RMEBPD Clinical Cog Load (2.13.15) Laptop version (2),2989,1,"<?xml version=""1.0""?>\n<Clock xmlns:dt=""urn:schemas-microsoft-com:datatypes""><Description dt:dt=""string"">E-Prime Primary Realtime Clock</Description><StartTime><Timestamp dt:dt=""int"">0</Timestamp><DateUtc dt:dt=""string"">2019-02-06T17:09:39Z</DateUtc></StartTime><FrequencyChanges><FrequencyChange><Frequency dt:dt=""r8"">2922931</Frequency><Timestamp dt:dt=""r8"">3372907052090</Timestamp><Current dt:dt=""r8"">0</Current><DateUtc dt:dt=""string"">2019-02-06T17:09:39Z</DateUtc></FrequencyChange></FrequencyChanges></Clock>\n",RMEBPD Clinical Cog Load (2.13.15) Laptop version (2)-2989-1,60.006,1.0.0.476,Keyboard,1,MZ,1358081430,Full,3.0.3.60,3.0.3.60,2/6/2019,2/6/2019 17:09,12:09:40,3.0.3.43,2,,,,,,,,,?,,2,1,2,,,,,,,,,,,,,Keyboard,1522,1575311,,PANAS,,,,,,,,,,BlockList,,,,,,,,,,,,,14,,,,,,,,,,,,,,,PANAS14.bmp,,,,,,,,,,,,14,1,14,Keyboard,1,1936,1617537,PANASProc,,,,,,,,,,,,,PANASQuestions,,,,,,,
RMEBPD Clinical Cog Load (2.13.15) Laptop version (2),2989,1,"<?xml version=""1.0""?>\n<Clock xmlns:dt=""urn:schemas-microsoft-com:datatypes""><Description dt:dt=""string"">E-Prime Primary Realtime Clock</Description><StartTime><Timestamp dt:dt=""int"">0</Timestamp><DateUtc dt:dt=""string"">2019-02-06T17:09:39Z</DateUtc></StartTime><FrequencyChanges><FrequencyChange><Frequency dt:dt=""r8"">2922931</Frequency><Timestamp dt:dt=""r8"">3372907052090</Timestamp><Current dt:dt=""r8"">0</Current><DateUtc dt:dt=""string"">2019-02-06T17:09:39Z</DateUtc></FrequencyChange></FrequencyChanges></Clock>\n",RMEBPD Clinical Cog Load (2.13.15) Laptop version (2)-2989-1,60.006,1.0.0.476,Keyboard,1,MZ,1358081430,Full,3.0.3.60,3.0.3.60,2/6/2019,2/6/2019 17:09,12:09:40,3.0.3.43,2,,,,,,,,,?,,2,1,2,,,,,,,,,,,,,Keyboard,1522,1575311,,PANAS,,,,,,,,,,BlockList,,,,,,,,,,,,,15,,,,,,,,,,,,,,,PANAS15.bmp,,,,,,,,,,,,15,1,15,Keyboard,3,3477,1621062,PANASProc,,,,,,,,,,,,,PANASQuestions,,,,,,,
RMEBPD Clinical Cog Load (2.13.15) Laptop version (2),2989,1,"<?xml version=""1.0""?>\n<Clock xmlns:dt=""urn:schemas-microsoft-com:datatypes""><Description dt:dt=""string"">E-Prime Primary Realtime Clock</Description><StartTime><Timestamp dt:dt=""int"">0</Timestamp><DateUtc dt:dt=""string"">2019-02-06T17:09:39Z</DateUtc></StartTime><FrequencyChanges><FrequencyChange><Frequency dt:dt=""r8"">2922931</Frequency><Timestamp dt:dt=""r8"">3372907052090</Timestamp><Current dt:dt=""r8"">0</Current><DateUtc dt:dt=""string"">2019-02-06T17:09:39Z</DateUtc></FrequencyChange></FrequencyChanges></Clock>\n",RMEBPD Clinical Cog Load (2.13.15) Laptop version (2)-2989-1,60.006,1.0.0.476,Keyboard,1,MZ,1358081430,Full,3.0.3.60,3.0.3.60,2/6/2019,2/6/2019 17:09,12:09:40,3.0.3.43,2,,,,,,,,,?,,2,1,2,,,,,,,,,,,,,Keyboard,1522,1575311,,PANAS,,,,,,,,,,BlockList,,,,,,,,,,,,,16,,,,,,,,,,,,,,,PANAS16.bmp,,,,,,,,,,,,16,1,16,Keyboard,1,1442,1622576,PANASProc,,,,,,,,,,,,,PANASQuestions,,,,,,,
RMEBPD Clinical Cog Load (2.13.15) Laptop version (2),2989,1,"<?xml version=""1.0""?>\n<Clock xmlns:dt=""urn:schemas-microsoft-com:datatypes""><Description dt:dt=""string"">E-Prime Primary Realtime Clock</Description><StartTime><Timestamp dt:dt=""int"">0</Timestamp><DateUtc dt:dt=""string"">2019-02-06T17:09:39Z</DateUtc></StartTime><FrequencyChanges><FrequencyChange><Frequency dt:dt=""r8"">2922931</Frequency><Timestamp dt:dt=""r8"">3372907052090</Timestamp><Current dt:dt=""r8"">0</Current><DateUtc dt:dt=""string"">2019-02-06T17:09:39Z</DateUtc></FrequencyChange></FrequencyChanges></Clock>\n",RMEBPD Clinical Cog Load (2.13.15) Laptop version (2)-2989-1,60.006,1.0.0.476,Keyboard,1,MZ,1358081430,Full,3.0.3.60,3.0.3.60,2/6/2019,2/6/2019 17:09,12:09:40,3.0.3.43,2,,,,,,,,,?,,2,1,2,,,,,,,,,,,,,Keyboard,1522,1575311,,PANAS,,,,,,,,,,BlockList,,,,,,,,,,,,,17,,,,,,,,,,,,,,,PANAS17.bmp,,,,,,,,,,,,17,1,17,Keyboard,4,4859,1627493,PANASProc,,,,,,,,,,,,,PANASQuestions,,,,,,,
RMEBPD Clinical Cog Load (2.13.15) Laptop version (2),2989,1,"<?xml version=""1.0""?>\n<Clock xmlns:dt=""urn:schemas-microsoft-com:datatypes""><Description dt:dt=""string"">E-Prime Primary Realtime Clock</Description><StartTime><Timestamp dt:dt=""int"">0</Timestamp><DateUtc dt:dt=""string"">2019-02-06T17:09:39Z</DateUtc></StartTime><FrequencyChanges><FrequencyChange><Frequency dt:dt=""r8"">2922931</Frequency><Timestamp dt:dt=""r8"">3372907052090</Timestamp><Current dt:dt=""r8"">0</Current><DateUtc dt:dt=""string"">2019-02-06T17:09:39Z</DateUtc></FrequencyChange></FrequencyChanges></Clock>\n",RMEBPD Clinical Cog Load (2.13.15) Laptop version (2)-2989-1,60.006,1.0.0.476,Keyboard,1,MZ,1358081430,Full,3.0.3.60,3.0.3.60,2/6/2019,2/6/2019 17:09,12:09:40,3.0.3.43,2,,,,,,,,,?,,2,1,2,,,,,,,,,,,,,Keyboard,1522,1575311,,PANAS,,,,,,,,,,BlockList,,,,,,,,,,,,,18,,,,,,,,,,,,,,,PANAS18.bmp,,,,,,,,,,,,18,1,18,Keyboard,1,2788,1630338,PANASProc,,,,,,,,,,,,,PANASQuestions,,,,,,,
RMEBPD Clinical Cog Load (2.13.15) Laptop version (2),2989,1,"<?xml version=""1.0""?>\n<Clock xmlns:dt=""urn:schemas-microsoft-com:datatypes""><Description dt:dt=""string"">E-Prime Primary Realtime Clock</Description><StartTime><Timestamp dt:dt=""int"">0</Timestamp><DateUtc dt:dt=""string"">2019-02-06T17:09:39Z</DateUtc></StartTime><FrequencyChanges><FrequencyChange><Frequency dt:dt=""r8"">2922931</Frequency><Timestamp dt:dt=""r8"">3372907052090</Timestamp><Current dt:dt=""r8"">0</Current><DateUtc dt:dt=""string"">2019-02-06T17:09:39Z</DateUtc></FrequencyChange></FrequencyChanges></Clock>\n",RMEBPD Clinical Cog Load (2.13.15) Laptop version (2)-2989-1,60.006,1.0.0.476,Keyboard,1,MZ,1358081430,Full,3.0.3.60,3.0.3.60,2/6/2019,2/6/2019 17:09,12:09:40,3.0.3.43,2,,,,,,,,,?,,2,1,2,,,,,,,,,,,,,Keyboard,1522,1575311,,PANAS,,,,,,,,,,BlockList,,,,,,,,,,,,,19,,,,,,,,,,,,,,,PANAS19.bmp,,,,,,,,,,,,19,1,19,Keyboard,5,2270,1632670,PANASProc,,,,,,,,,,,,,PANASQuestions,,,,,,,
RMEBPD Clinical Cog Load (2.13.15) Laptop version (2),2989,1,"<?xml version=""1.0""?>\n<Clock xmlns:dt=""urn:schemas-microsoft-com:datatypes""><Description dt:dt=""string"">E-Prime Primary Realtime Clock</Description><StartTime><Timestamp dt:dt=""int"">0</Timestamp><DateUtc dt:dt=""string"">2019-02-06T17:09:39Z</DateUtc></StartTime><FrequencyChanges><FrequencyChange><Frequency dt:dt=""r8"">2922931</Frequency><Timestamp dt:dt=""r8"">3372907052090</Timestamp><Current dt:dt=""r8"">0</Current><DateUtc dt:dt=""string"">2019-02-06T17:09:39Z</DateUtc></FrequencyChange></FrequencyChanges></Clock>\n",RMEBPD Clinical Cog Load (2.13.15) Laptop version (2)-2989-1,60.006,1.0.0.476,Keyboard,1,MZ,1358081430,Full,3.0.3.60,3.0.3.60,2/6/2019,2/6/2019 17:09,12:09:40,3.0.3.43,2,,,,,,,,,?,,2,1,2,,,,,,,,,,,,,Keyboard,1522,1575311,,PANAS,,,,,,,,,,BlockList,,,,,,,,,,,,,20,,,,,,,,,,,,,,,PANAS20.bmp,,,,,,,,,,,,20,1,20,Keyboard,1,3512,1636229,PANASProc,,,,,,,,,,,,,PANASQuestions,,,,,,,
RMEBPD Clinical Cog Load (2.13.15) Laptop version (2),2989,1,"<?xml version=""1.0""?>\n<Clock xmlns:dt=""urn:schemas-microsoft-com:datatypes""><Description dt:dt=""string"">E-Prime Primary Realtime Clock</Description><StartTime><Timestamp dt:dt=""int"">0</Timestamp><DateUtc dt:dt=""string"">2019-02-06T17:09:39Z</DateUtc></StartTime><FrequencyChanges><FrequencyChange><Frequency dt:dt=""r8"">2922931</Frequency><Timestamp dt:dt=""r8"">3372907052090</Timestamp><Current dt:dt=""r8"">0</Current><DateUtc dt:dt=""string"">2019-02-06T17:09:39Z</DateUtc></FrequencyChange></FrequencyChanges></Clock>\n",RMEBPD Clinical Cog Load (2.13.15) Laptop version (2)-2989-1,60.006,1.0.0.476,Keyboard,1,MZ,1358081430,Full,3.0.3.60,3.0.3.60,2/6/2019,2/6/2019 17:09,12:09:40,3.0.3.43,2,,,,,,,,,?,,2,1,2,,,,,,,,,,,,,Keyboard,1522,1575311,,PANAS,,,,,,,,,,BlockList,,,,,,,,,,,,,21,,,,,,,,,,,,,,,PANAS21.bmp,,,,,,,,,,,,21,1,21,Keyboard,3,1373,1637639,PANASProc,,,,,,,,,,,,,PANASQuestions,,,,,,,
RMEBPD Clinical Cog Load (2.13.15) Laptop version (2),2989,1,"<?xml version=""1.0""?>\n<Clock xmlns:dt=""urn:schemas-microsoft-com:datatypes""><Description dt:dt=""string"">E-Prime Primary Realtime Clock</Description><StartTime><Timestamp dt:dt=""int"">0</Timestamp><DateUtc dt:dt=""string"">2019-02-06T17:09:39Z</DateUtc></StartTime><FrequencyChanges><FrequencyChange><Frequency dt:dt=""r8"">2922931</Frequency><Timestamp dt:dt=""r8"">3372907052090</Timestamp><Current dt:dt=""r8"">0</Current><DateUtc dt:dt=""string"">2019-02-06T17:09:39Z</DateUtc></FrequencyChange></FrequencyChanges></Clock>\n",RMEBPD Clinical Cog Load (2.13.15) Laptop version (2)-2989-1,60.006,1.0.0.476,Keyboard,1,MZ,1358081430,Full,3.0.3.60,3.0.3.60,2/6/2019,2/6/2019 17:09,12:09:40,3.0.3.43,2,,,,,,,,,?,,2,1,2,,,,,,,,,,,,,Keyboard,1522,1575311,,PANAS,,,,,,,,,,BlockList,,,,,,,,,,,,,22,,,,,,,,,,,,,,,PANAS22.bmp,,,,,,,,,,,,22,1,22,Keyboard,1,1722,1639388,PANASProc,,,,,,,,,,,,,PANASQuestions,,,,,,,
RMEBPD Clinical Cog Load (2.13.15) Laptop version (2),2989,1,"<?xml version=""1.0""?>\n<Clock xmlns:dt=""urn:schemas-microsoft-com:datatypes""><Description dt:dt=""string"">E-Prime Primary Realtime Clock</Description><StartTime><Timestamp dt:dt=""int"">0</Timestamp><DateUtc dt:dt=""string"">2019-02-06T17:09:39Z</DateUtc></StartTime><FrequencyChanges><FrequencyChange><Frequency dt:dt=""r8"">2922931</Frequency><Timestamp dt:dt=""r8"">3372907052090</Timestamp><Current dt:dt=""r8"">0</Current><DateUtc dt:dt=""string"">2019-02-06T17:09:39Z</DateUtc></FrequencyChange></FrequencyChanges></Clock>\n",RMEBPD Clinical Cog Load (2.13.15) Laptop version (2)-2989-1,60.006,1.0.0.476,Keyboard,1,MZ,1358081430,Full,3.0.3.60,3.0.3.60,2/6/2019,2/6/2019 17:09,12:09:40,3.0.3.43,3,Keyboard,1,1103,2371302,Keyboard,1,1404,2370187,?,Keyboard,3,1,3,,Keyboard,Keyboard,1,1,Keyboard,-999999,28,1693778,1,3806,1697584,,,,Keyboard,RME,0,1,Keyboard,-999999,17,1683679,4,10071,1693750,BlockList,0,,Keyboard,-999999,14,2371316,{TAB},1357,2372673,,,,1,,,,,,,,,,,,,1,2,24 copy.bmp,1,2,Keyboard,-999999,25,1718625,2,1986,1720611,*9Xha64,5,,,,,,,,RMEProc,1,1,Keyboard,-999999,33,1709193,1,9407,1718600,24,1,1,RMETrialList,,,,,,,
RMEBPD Clinical Cog Load (2.13.15) Laptop version (2),2989,1,"<?xml version=""1.0""?>\n<Clock xmlns:dt=""urn:schemas-microsoft-com:datatypes""><Description dt:dt=""string"">E-Prime Primary Realtime Clock</Description><StartTime><Timestamp dt:dt=""int"">0</Timestamp><DateUtc dt:dt=""string"">2019-02-06T17:09:39Z</DateUtc></StartTime><FrequencyChanges><FrequencyChange><Frequency dt:dt=""r8"">2922931</Frequency><Timestamp dt:dt=""r8"">3372907052090</Timestamp><Current dt:dt=""r8"">0</Current><DateUtc dt:dt=""string"">2019-02-06T17:09:39Z</DateUtc></FrequencyChange></FrequencyChanges></Clock>\n",RMEBPD Clinical Cog Load (2.13.15) Laptop version (2)-2989-1,60.006,1.0.0.476,Keyboard,1,MZ,1358081430,Full,3.0.3.60,3.0.3.60,2/6/2019,2/6/2019 17:09,12:09:40,3.0.3.43,3,Keyboard,1,1103,2371302,Keyboard,1,1404,2370187,?,Keyboard,3,1,3,,Keyboard,Keyboard,1,1,Keyboard,-999999,28,1693778,1,3806,1697584,,,,Keyboard,RME,0,1,Keyboard,-999999,17,1683679,4,10071,1693750,BlockList,0,,Keyboard,-999999,14,2371316,{TAB},1357,2372673,,,,2,,,,,,,,,,,,,3,2,12 copy.bmp,1,2,Keyboard,-999999,28,1732141,2,3017,1735158,K#zr5N6,2,,,,,,,,RMEProc,1,3,Keyboard,-999999,33,1725658,3,6455,1732113,12,1,2,RMETrialList,,,,,,,
RMEBPD Clinical Cog Load (2.13.15) Laptop version (2),2989,1,"<?xml version=""1.0""?>\n<Clock xmlns:dt=""urn:schemas-microsoft-com:datatypes""><Description dt:dt=""string"">E-Prime Primary Realtime Clock</Description><StartTime><Timestamp dt:dt=""int"">0</Timestamp><DateUtc dt:dt=""string"">2019-02-06T17:09:39Z</DateUtc></StartTime><FrequencyChanges><FrequencyChange><Frequency dt:dt=""r8"">2922931</Frequency><Timestamp dt:dt=""r8"">3372907052090</Timestamp><Current dt:dt=""r8"">0</Current><DateUtc dt:dt=""string"">2019-02-06T17:09:39Z</DateUtc></FrequencyChange></FrequencyChanges></Clock>\n",RMEBPD Clinical Cog Load (2.13.15) Laptop version (2)-2989-1,60.006,1.0.0.476,Keyboard,1,MZ,1358081430,Full,3.0.3.60,3.0.3.60,2/6/2019,2/6/2019 17:09,12:09:40,3.0.3.43,3,Keyboard,1,1103,2371302,Keyboard,1,1404,2370187,?,Keyboard,3,1,3,,Keyboard,Keyboard,1,1,Keyboard,-999999,28,1693778,1,3806,1697584,,,,Keyboard,RME,0,1,Keyboard,-999999,17,1683679,4,10071,1693750,BlockList,0,,Keyboard,-999999,14,2371316,{TAB},1357,2372673,,,,3,,,,,,,,,,,,,2,2,02 copy.bmp,0,2,Keyboard,-999999,28,1749506,1,1561,1751067,G#935zq,g,,,,,,,,RMEProc,1,2,Keyboard,-999999,49,1740223,2,9255,1749478,2,1,3,RMETrialList,,,,,,,
RMEBPD Clinical Cog Load (2.13.15) Laptop version (2),2989,1,"<?xml version=""1.0""?>\n<Clock xmlns:dt=""urn:schemas-microsoft-com:datatypes""><Description dt:dt=""string"">E-Prime Primary Realtime Clock</Description><StartTime><Timestamp dt:dt=""int"">0</Timestamp><DateUtc dt:dt=""string"">2019-02-06T17:09:39Z</DateUtc></StartTime><FrequencyChanges><FrequencyChange><Frequency dt:dt=""r8"">2922931</Frequency><Timestamp dt:dt=""r8"">3372907052090</Timestamp><Current dt:dt=""r8"">0</Current><DateUtc dt:dt=""string"">2019-02-06T17:09:39Z</DateUtc></FrequencyChange></FrequencyChanges></Clock>\n",RMEBPD Clinical Cog Load (2.13.15) Laptop version (2)-2989-1,60.006,1.0.0.476,Keyboard,1,MZ,1358081430,Full,3.0.3.60,3.0.3.60,2/6/2019,2/6/2019 17:09,12:09:40,3.0.3.43,3,Keyboard,1,1103,2371302,Keyboard,1,1404,2370187,?,Keyboard,3,1,3,,Keyboard,Keyboard,1,1,Keyboard,-999999,28,1693778,1,3806,1697584,,,,Keyboard,RME,0,1,Keyboard,-999999,17,1683679,4,10071,1693750,BlockList,0,,Keyboard,-999999,14,2371316,{TAB},1357,2372673,,,,4,,,,,,,,,,,,,2,1,13 copy.bmp,1,1,Keyboard,-999999,20,1765721,1,2203,1767924,42*tg6D,t,,,,,,,,RMEProc,1,2,Keyboard,-999999,33,1756122,2,9579,1765701,13,1,4,RMETrialList,,,,,,,
RMEBPD Clinical Cog Load (2.13.15) Laptop version (2),2989,1,"<?xml version=""1.0""?>\n<Clock xmlns:dt=""urn:schemas-microsoft-com:datatypes""><Description dt:dt=""string"">E-Prime Primary Realtime Clock</Description><StartTime><Timestamp dt:dt=""int"">0</Timestamp><DateUtc dt:dt=""string"">2019-02-06T17:09:39Z</DateUtc></StartTime><FrequencyChanges><FrequencyChange><Frequency dt:dt=""r8"">2922931</Frequency><Timestamp dt:dt=""r8"">3372907052090</Timestamp><Current dt:dt=""r8"">0</Current><DateUtc dt:dt=""string"">2019-02-06T17:09:39Z</DateUtc></FrequencyChange></FrequencyChanges></Clock>\n",RMEBPD Clinical Cog Load (2.13.15) Laptop version (2)-2989-1,60.006,1.0.0.476,Keyboard,1,MZ,1358081430,Full,3.0.3.60,3.0.3.60,2/6/2019,2/6/2019 17:09,12:09:40,3.0.3.43,3,Keyboard,1,1103,2371302,Keyboard,1,1404,2370187,?,Keyboard,3,1,3,,Keyboard,Keyboard,1,1,Keyboard,-999999,28,1693778,1,3806,1697584,,,,Keyboard,RME,0,1,Keyboard,-999999,17,1683679,4,10071,1693750,BlockList,0,,Keyboard,-999999,14,2371316,{TAB},1357,2372673,,,,5,,,,,,,,,,,,,4,1,33 copy.bmp,0,1,Keyboard,-999999,18,1787886,2,4497,1792383,Hj*42w9,9,,,,,,,,RMEProc,1,4,Keyboard,-999999,49,1772987,4,14881,1787868,33,1,5,RMETrialList,,,,,,,
RMEBPD Clinical Cog Load (2.13.15) Laptop version (2),2989,1,"<?xml version=""1.0""?>\n<Clock xmlns:dt=""urn:schemas-microsoft-com:datatypes""><Description dt:dt=""string"">E-Prime Primary Realtime Clock</Description><StartTime><Timestamp dt:dt=""int"">0</Timestamp><DateUtc dt:dt=""string"">2019-02-06T17:09:39Z</DateUtc></StartTime><FrequencyChanges><FrequencyChange><Frequency dt:dt=""r8"">2922931</Frequency><Timestamp dt:dt=""r8"">3372907052090</Timestamp><Current dt:dt=""r8"">0</Current><DateUtc dt:dt=""string"">2019-02-06T17:09:39Z</DateUtc></FrequencyChange></FrequencyChanges></Clock>\n",RMEBPD Clinical Cog Load (2.13.15) Laptop version (2)-2989-1,60.006,1.0.0.476,Keyboard,1,MZ,1358081430,Full,3.0.3.60,3.0.3.60,2/6/2019,2/6/2019 17:09,12:09:40,3.0.3.43,3,Keyboard,1,1103,2371302,Keyboard,1,1404,2370187,?,Keyboard,3,1,3,,Keyboard,Keyboard,1,1,Keyboard,-999999,28,1693778,1,3806,1697584,,,,Keyboard,RME,0,1,Keyboard,-999999,17,1683679,4,10071,1693750,BlockList,0,,Keyboard,-999999,14,2371316,{TAB},1357,2372673,,,,6,,,,,,,,,,,,,1,1,15 copy.bmp,1,1,Keyboard,-999999,17,1813350,1,2883,1816233,Fr26Km#,r,,,,,,,,RMEProc,1,1,Keyboard,-999999,33,1797435,1,15898,1813333,15,1,6,RMETrialList,,,,,,,
RMEBPD Clinical Cog Load (2.13.15) Laptop version (2),2989,1,"<?xml version=""1.0""?>\n<Clock xmlns:dt=""urn:schemas-microsoft-com:datatypes""><Description dt:dt=""string"">E-Prime Primary Realtime Clock</Description><StartTime><Timestamp dt:dt=""int"">0</Timestamp><DateUtc dt:dt=""string"">2019-02-06T17:09:39Z</DateUtc></StartTime><FrequencyChanges><FrequencyChange><Frequency dt:dt=""r8"">2922931</Frequency><Timestamp dt:dt=""r8"">3372907052090</Timestamp><Current dt:dt=""r8"">0</Current><DateUtc dt:dt=""string"">2019-02-06T17:09:39Z</DateUtc></FrequencyChange></FrequencyChanges></Clock>\n",RMEBPD Clinical Cog Load (2.13.15) Laptop version (2)-2989-1,60.006,1.0.0.476,Keyboard,1,MZ,1358081430,Full,3.0.3.60,3.0.3.60,2/6/2019,2/6/2019 17:09,12:09:40,3.0.3.43,3,Keyboard,1,1103,2371302,Keyboard,1,1404,2370187,?,Keyboard,3,1,3,,Keyboard,Keyboard,1,1,Keyboard,-999999,28,1693778,1,3806,1697584,,,,Keyboard,RME,0,1,Keyboard,-999999,17,1683679,4,10071,1693750,BlockList,0,,Keyboard,-999999,14,2371316,{TAB},1357,2372673,,,,7,,,,,,,,,,,,,1,2,22 copy.bmp,1,2,Keyboard,-999999,26,1835798,2,1398,1837196,U8#5nq,J,,,,,,,,RMEProc,0,1,Keyboard,-999999,33,1821283,3,14489,1835772,22,1,7,RMETrialList,,,,,,,
RMEBPD Clinical Cog Load (2.13.15) Laptop version (2),2989,1,"<?xml version=""1.0""?>\n<Clock xmlns:dt=""urn:schemas-microsoft-com:datatypes""><Description dt:dt=""string"">E-Prime Primary Realtime Clock</Description><StartTime><Timestamp dt:dt=""int"">0</Timestamp><DateUtc dt:dt=""string"">2019-02-06T17:09:39Z</DateUtc></StartTime><FrequencyChanges><FrequencyChange><Frequency dt:dt=""r8"">2922931</Frequency><Timestamp dt:dt=""r8"">3372907052090</Timestamp><Current dt:dt=""r8"">0</Current><DateUtc dt:dt=""string"">2019-02-06T17:09:39Z</DateUtc></FrequencyChange></FrequencyChanges></Clock>\n",RMEBPD Clinical Cog Load (2.13.15) Laptop version (2)-2989-1,60.006,1.0.0.476,Keyboard,1,MZ,1358081430,Full,3.0.3.60,3.0.3.60,2/6/2019,2/6/2019 17:09,12:09:40,3.0.3.43,3,Keyboard,1,1103,2371302,Keyboard,1,1404,2370187,?,Keyboard,3,1,3,,Keyboard,Keyboard,1,1,Keyboard,-999999,28,1693778,1,3806,1697584,,,,Keyboard,RME,0,1,Keyboard,-999999,17,1683679,4,10071,1693750,BlockList,0,,Keyboard,-999999,14,2371316,{TAB},1357,2372673,,,,8,,,,,,,,,,,,,2,1,27 copy.bmp,0,1,Keyboard,-999999,25,1875594,2,2141,1877735,86Y4n*J,Y,,,,,,,,RMEProc,0,2,Keyboard,-999999,99,1842314,3,33255,1875569,27,1,8,RMETrialList,,,,,,,
RMEBPD Clinical Cog Load (2.13.15) Laptop version (2),2989,1,"<?xml version=""1.0""?>\n<Clock xmlns:dt=""urn:schemas-microsoft-com:datatypes""><Description dt:dt=""string"">E-Prime Primary Realtime Clock</Description><StartTime><Timestamp dt:dt=""int"">0</Timestamp><DateUtc dt:dt=""string"">2019-02-06T17:09:39Z</DateUtc></StartTime><FrequencyChanges><FrequencyChange><Frequency dt:dt=""r8"">2922931</Frequency><Timestamp dt:dt=""r8"">3372907052090</Timestamp><Current dt:dt=""r8"">0</Current><DateUtc dt:dt=""string"">2019-02-06T17:09:39Z</DateUtc></FrequencyChange></FrequencyChanges></Clock>\n",RMEBPD Clinical Cog Load (2.13.15) Laptop version (2)-2989-1,60.006,1.0.0.476,Keyboard,1,MZ,1358081430,Full,3.0.3.60,3.0.3.60,2/6/2019,2/6/2019 17:09,12:09:40,3.0.3.43,3,Keyboard,1,1103,2371302,Keyboard,1,1404,2370187,?,Keyboard,3,1,3,,Keyboard,Keyboard,1,1,Keyboard,-999999,28,1693778,1,3806,1697584,,,,Keyboard,RME,0,1,Keyboard,-999999,17,1683679,4,10071,1693750,BlockList,0,,Keyboard,-999999,14,2371316,{TAB},1357,2372673,,,,9,,,,,,,,,,,,,2,2,20 copy.bmp,1,2,Keyboard,-999999,22,1889793,2,3569,1893362,Ev*41x2,d,,,,,,,,RMEProc,1,2,Keyboard,-999999,99,1882860,2,6911,1889771,20,1,9,RMETrialList,,,,,,,
RMEBPD Clinical Cog Load (2.13.15) Laptop version (2),2989,1,"<?xml version=""1.0""?>\n<Clock xmlns:dt=""urn:schemas-microsoft-com:datatypes""><Description dt:dt=""string"">E-Prime Primary Realtime Clock</Description><StartTime><Timestamp dt:dt=""int"">0</Timestamp><DateUtc dt:dt=""string"">2019-02-06T17:09:39Z</DateUtc></StartTime><FrequencyChanges><FrequencyChange><Frequency dt:dt=""r8"">2922931</Frequency><Timestamp dt:dt=""r8"">3372907052090</Timestamp><Current dt:dt=""r8"">0</Current><DateUtc dt:dt=""string"">2019-02-06T17:09:39Z</DateUtc></FrequencyChange></FrequencyChanges></Clock>\n",RMEBPD Clinical Cog Load (2.13.15) Laptop version (2)-2989-1,60.006,1.0.0.476,Keyboard,1,MZ,1358081430,Full,3.0.3.60,3.0.3.60,2/6/2019,2/6/2019 17:09,12:09:40,3.0.3.43,3,Keyboard,1,1103,2371302,Keyboard,1,1404,2370187,?,Keyboard,3,1,3,,Keyboard,Keyboard,1,1,Keyboard,-999999,28,1693778,1,3806,1697584,,,,Keyboard,RME,0,1,Keyboard,-999999,17,1683679,4,10071,1693750,BlockList,0,,Keyboard,-999999,14,2371316,{TAB},1357,2372673,,,,10,,,,,,,,,,,,,1,1,01 copy.bmp,1,1,Keyboard,-999999,20,1903792,1,1954,1905746,Hj6973*,j,,,,,,,,RMEProc,1,1,Keyboard,-999999,100,1898476,1,5296,1903772,1,1,10,RMETrialList,,,,,,,
RMEBPD Clinical Cog Load (2.13.15) Laptop version (2),2989,1,"<?xml version=""1.0""?>\n<Clock xmlns:dt=""urn:schemas-microsoft-com:datatypes""><Description dt:dt=""string"">E-Prime Primary Realtime Clock</Description><StartTime><Timestamp dt:dt=""int"">0</Timestamp><DateUtc dt:dt=""string"">2019-02-06T17:09:39Z</DateUtc></StartTime><FrequencyChanges><FrequencyChange><Frequency dt:dt=""r8"">2922931</Frequency><Timestamp dt:dt=""r8"">3372907052090</Timestamp><Current dt:dt=""r8"">0</Current><DateUtc dt:dt=""string"">2019-02-06T17:09:39Z</DateUtc></FrequencyChange></FrequencyChanges></Clock>\n",RMEBPD Clinical Cog Load (2.13.15) Laptop version (2)-2989-1,60.006,1.0.0.476,Keyboard,1,MZ,1358081430,Full,3.0.3.60,3.0.3.60,2/6/2019,2/6/2019 17:09,12:09:40,3.0.3.43,3,Keyboard,1,1103,2371302,Keyboard,1,1404,2370187,?,Keyboard,3,1,3,,Keyboard,Keyboard,1,1,Keyboard,-999999,28,1693778,1,3806,1697584,,,,Keyboard,RME,0,1,Keyboard,-999999,17,1683679,4,10071,1693750,BlockList,0,,Keyboard,-999999,14,2371316,{TAB},1357,2372673,,,,11,,,,,,,,,,,,,1,2,08 copy.bmp,1,2,Keyboard,-999999,26,1921774,2,1253,1923027,Y9y3*w6,f,,,,,,,,RMEProc,1,1,Keyboard,-999999,100,1910875,1,10873,1921748,8,1,11,RMETrialList,,,,,,,
RMEBPD Clinical Cog Load (2.13.15) Laptop version (2),2989,1,"<?xml version=""1.0""?>\n<Clock xmlns:dt=""urn:schemas-microsoft-com:datatypes""><Description dt:dt=""string"">E-Prime Primary Realtime Clock</Description><StartTime><Timestamp dt:dt=""int"">0</Timestamp><DateUtc dt:dt=""string"">2019-02-06T17:09:39Z</DateUtc></StartTime><FrequencyChanges><FrequencyChange><Frequency dt:dt=""r8"">2922931</Frequency><Timestamp dt:dt=""r8"">3372907052090</Timestamp><Current dt:dt=""r8"">0</Current><DateUtc dt:dt=""string"">2019-02-06T17:09:39Z</DateUtc></FrequencyChange></FrequencyChanges></Clock>\n",RMEBPD Clinical Cog Load (2.13.15) Laptop version (2)-2989-1,60.006,1.0.0.476,Keyboard,1,MZ,1358081430,Full,3.0.3.60,3.0.3.60,2/6/2019,2/6/2019 17:09,12:09:40,3.0.3.43,3,Keyboard,1,1103,2371302,Keyboard,1,1404,2370187,?,Keyboard,3,1,3,,Keyboard,Keyboard,1,1,Keyboard,-999999,28,1693778,1,3806,1697584,,,,Keyboard,RME,0,1,Keyboard,-999999,17,1683679,4,10071,1693750,BlockList,0,,Keyboard,-999999,14,2371316,{TAB},1357,2372673,,,,12,,,,,,,,,,,,,2,2,04 copy.bmp,1,2,Keyboard,-999999,12,1937072,2,2579,1939651,89F5*qp,6,,,,,,,,RMEProc,1,2,Keyboard,-999999,49,1928106,2,8954,1937060,4,1,12,RMETrialList,,,,,,,
RMEBPD Clinical Cog Load (2.13.15) Laptop version (2),2989,1,"<?xml version=""1.0""?>\n<Clock xmlns:dt=""urn:schemas-microsoft-com:datatypes""><Description dt:dt=""string"">E-Prime Primary Realtime Clock</Description><StartTime><Timestamp dt:dt=""int"">0</Timestamp><DateUtc dt:dt=""string"">2019-02-06T17:09:39Z</DateUtc></StartTime><FrequencyChanges><FrequencyChange><Frequency dt:dt=""r8"">2922931</Frequency><Timestamp dt:dt=""r8"">3372907052090</Timestamp><Current dt:dt=""r8"">0</Current><DateUtc dt:dt=""string"">2019-02-06T17:09:39Z</DateUtc></FrequencyChange></FrequencyChanges></Clock>\n",RMEBPD Clinical Cog Load (2.13.15) Laptop version (2)-2989-1,60.006,1.0.0.476,Keyboard,1,MZ,1358081430,Full,3.0.3.60,3.0.3.60,2/6/2019,2/6/2019 17:09,12:09:40,3.0.3.43,3,Keyboard,1,1103,2371302,Keyboard,1,1404,2370187,?,Keyboard,3,1,3,,Keyboard,Keyboard,1,1,Keyboard,-999999,28,1693778,1,3806,1697584,,,,Keyboard,RME,0,1,Keyboard,-999999,17,1683679,4,10071,1693750,BlockList,0,,Keyboard,-999999,14,2371316,{TAB},1357,2372673,,,,13,,,,,,,,,,,,,2,2,30 copy.bmp,1,2,Keyboard,-999999,26,1948721,2,926,1949647,#KQ47d3,1,,,,,,,,RMEProc,0,2,Keyboard,-999999,49,1944721,3,3974,1948695,30,1,13,RMETrialList,,,,,,,
RMEBPD Clinical Cog Load (2.13.15) Laptop version (2),2989,1,"<?xml version=""1.0""?>\n<Clock xmlns:dt=""urn:schemas-microsoft-com:datatypes""><Description dt:dt=""string"">E-Prime Primary Realtime Clock</Description><StartTime><Timestamp dt:dt=""int"">0</Timestamp><DateUtc dt:dt=""string"">2019-02-06T17:09:39Z</DateUtc></StartTime><FrequencyChanges><FrequencyChange><Frequency dt:dt=""r8"">2922931</Frequency><Timestamp dt:dt=""r8"">3372907052090</Timestamp><Current dt:dt=""r8"">0</Current><DateUtc dt:dt=""string"">2019-02-06T17:09:39Z</DateUtc></FrequencyChange></FrequencyChanges></Clock>\n",RMEBPD Clinical Cog Load (2.13.15) Laptop version (2)-2989-1,60.006,1.0.0.476,Keyboard,1,MZ,1358081430,Full,3.0.3.60,3.0.3.60,2/6/2019,2/6/2019 17:09,12:09:40,3.0.3.43,3,Keyboard,1,1103,2371302,Keyboard,1,1404,2370187,?,Keyboard,3,1,3,,Keyboard,Keyboard,1,1,Keyboard,-999999,28,1693778,1,3806,1697584,,,,Keyboard,RME,0,1,Keyboard,-999999,17,1683679,4,10071,1693750,BlockList,0,,Keyboard,-999999,14,2371316,{TAB},1357,2372673,,,,14,,,,,,,,,,,,,2,1,31 copy.bmp,1,1,Keyboard,-999999,24,1965770,1,1719,1967489,v9Gu*64,u,,,,,,,,RMEProc,1,2,Keyboard,-999999,33,1954704,2,11042,1965746,31,1,14,RMETrialList,,,,,,,
RMEBPD Clinical Cog Load (2.13.15) Laptop version (2),2989,1,"<?xml version=""1.0""?>\n<Clock xmlns:dt=""urn:schemas-microsoft-com:datatypes""><Description dt:dt=""string"">E-Prime Primary Realtime Clock</Description><StartTime><Timestamp dt:dt=""int"">0</Timestamp><DateUtc dt:dt=""string"">2019-02-06T17:09:39Z</DateUtc></StartTime><FrequencyChanges><FrequencyChange><Frequency dt:dt=""r8"">2922931</Frequency><Timestamp dt:dt=""r8"">3372907052090</Timestamp><Current dt:dt=""r8"">0</Current><DateUtc dt:dt=""string"">2019-02-06T17:09:39Z</DateUtc></FrequencyChange></FrequencyChanges></Clock>\n",RMEBPD Clinical Cog Load (2.13.15) Laptop version (2)-2989-1,60.006,1.0.0.476,Keyboard,1,MZ,1358081430,Full,3.0.3.60,3.0.3.60,2/6/2019,2/6/2019 17:09,12:09:40,3.0.3.43,3,Keyboard,1,1103,2371302,Keyboard,1,1404,2370187,?,Keyboard,3,1,3,,Keyboard,Keyboard,1,1,Keyboard,-999999,28,1693778,1,3806,1697584,,,,Keyboard,RME,0,1,Keyboard,-999999,17,1683679,4,10071,1693750,BlockList,0,,Keyboard,-999999,14,2371316,{TAB},1357,2372673,,,,15,,,,,,,,,,,,,1,2,28 copy.bmp,1,2,Keyboard,-999999,20,1982351,2,3348,1985699,JH*tm73,N,,,,,,,,RMEProc,1,1,Keyboard,-999999,33,1972536,1,9795,1982331,28,1,15,RMETrialList,,,,,,,
RMEBPD Clinical Cog Load (2.13.15) Laptop version (2),2989,1,"<?xml version=""1.0""?>\n<Clock xmlns:dt=""urn:schemas-microsoft-com:datatypes""><Description dt:dt=""string"">E-Prime Primary Realtime Clock</Description><StartTime><Timestamp dt:dt=""int"">0</Timestamp><DateUtc dt:dt=""string"">2019-02-06T17:09:39Z</DateUtc></StartTime><FrequencyChanges><FrequencyChange><Frequency dt:dt=""r8"">2922931</Frequency><Timestamp dt:dt=""r8"">3372907052090</Timestamp><Current dt:dt=""r8"">0</Current><DateUtc dt:dt=""string"">2019-02-06T17:09:39Z</DateUtc></FrequencyChange></FrequencyChanges></Clock>\n",RMEBPD Clinical Cog Load (2.13.15) Laptop version (2)-2989-1,60.006,1.0.0.476,Keyboard,1,MZ,1358081430,Full,3.0.3.60,3.0.3.60,2/6/2019,2/6/2019 17:09,12:09:40,3.0.3.43,3,Keyboard,1,1103,2371302,Keyboard,1,1404,2370187,?,Keyboard,3,1,3,,Keyboard,Keyboard,1,1,Keyboard,-999999,28,1693778,1,3806,1697584,,,,Keyboard,RME,0,1,Keyboard,-999999,17,1683679,4,10071,1693750,BlockList,0,,Keyboard,-999999,14,2371316,{TAB},1357,2372673,,,,16,,,,,,,,,,,,,4,1,09 copy.bmp,1,1,Keyboard,-999999,18,2000350,1,1403,2001753,85tn3#1d,#,,,,,,,,RMEProc,1,4,Keyboard,-999999,33,1990751,4,9581,2000332,9,1,16,RMETrialList,,,,,,,
RMEBPD Clinical Cog Load (2.13.15) Laptop version (2),2989,1,"<?xml version=""1.0""?>\n<Clock xmlns:dt=""urn:schemas-microsoft-com:datatypes""><Description dt:dt=""string"">E-Prime Primary Realtime Clock</Description><StartTime><Timestamp dt:dt=""int"">0</Timestamp><DateUtc dt:dt=""string"">2019-02-06T17:09:39Z</DateUtc></StartTime><FrequencyChanges><FrequencyChange><Frequency dt:dt=""r8"">2922931</Frequency><Timestamp dt:dt=""r8"">3372907052090</Timestamp><Current dt:dt=""r8"">0</Current><DateUtc dt:dt=""string"">2019-02-06T17:09:39Z</DateUtc></FrequencyChange></FrequencyChanges></Clock>\n",RMEBPD Clinical Cog Load (2.13.15) Laptop version (2)-2989-1,60.006,1.0.0.476,Keyboard,1,MZ,1358081430,Full,3.0.3.60,3.0.3.60,2/6/2019,2/6/2019 17:09,12:09:40,3.0.3.43,3,Keyboard,1,1103,2371302,Keyboard,1,1404,2370187,?,Keyboard,3,1,3,,Keyboard,Keyboard,1,1,Keyboard,-999999,28,1693778,1,3806,1697584,,,,Keyboard,RME,0,1,Keyboard,-999999,17,1683679,4,10071,1693750,BlockList,0,,Keyboard,-999999,14,2371316,{TAB},1357,2372673,,,,17,,,,,,,,,,,,,2,2,06 copy.bmp,1,2,Keyboard,-999999,24,2012082,2,1134,2013216,n63#m1Q,G,,,,,,,,RMEProc,1,2,Keyboard,-999999,49,2006832,2,5226,2012058,6,1,17,RMETrialList,,,,,,,
RMEBPD Clinical Cog Load (2.13.15) Laptop version (2),2989,1,"<?xml version=""1.0""?>\n<Clock xmlns:dt=""urn:schemas-microsoft-com:datatypes""><Description dt:dt=""string"">E-Prime Primary Realtime Clock</Description><StartTime><Timestamp dt:dt=""int"">0</Timestamp><DateUtc dt:dt=""string"">2019-02-06T17:09:39Z</DateUtc></StartTime><FrequencyChanges><FrequencyChange><Frequency dt:dt=""r8"">2922931</Frequency><Timestamp dt:dt=""r8"">3372907052090</Timestamp><Current dt:dt=""r8"">0</Current><DateUtc dt:dt=""string"">2019-02-06T17:09:39Z</DateUtc></FrequencyChange></FrequencyChanges></Clock>\n",RMEBPD Clinical Cog Load (2.13.15) Laptop version (2)-2989-1,60.006,1.0.0.476,Keyboard,1,MZ,1358081430,Full,3.0.3.60,3.0.3.60,2/6/2019,2/6/2019 17:09,12:09:40,3.0.3.43,3,Keyboard,1,1103,2371302,Keyboard,1,1404,2370187,?,Keyboard,3,1,3,,Keyboard,Keyboard,1,1,Keyboard,-999999,28,1693778,1,3806,1697584,,,,Keyboard,RME,0,1,Keyboard,-999999,17,1683679,4,10071,1693750,BlockList,0,,Keyboard,-999999,14,2371316,{TAB},1357,2372673,,,,18,,,,,,,,,,,,,1,2,10 copy.bmp,1,2,Keyboard,-999999,12,2030497,2,1384,2031881,XgQ74*m,#,,,,,,,,RMEProc,0,1,Keyboard,-999999,49,2018281,3,12204,2030485,10,1,18,RMETrialList,,,,,,,
RMEBPD Clinical Cog Load (2.13.15) Laptop version (2),2989,1,"<?xml version=""1.0""?>\n<Clock xmlns:dt=""urn:schemas-microsoft-com:datatypes""><Description dt:dt=""string"">E-Prime Primary Realtime Clock</Description><StartTime><Timestamp dt:dt=""int"">0</Timestamp><DateUtc dt:dt=""string"">2019-02-06T17:09:39Z</DateUtc></StartTime><FrequencyChanges><FrequencyChange><Frequency dt:dt=""r8"">2922931</Frequency><Timestamp dt:dt=""r8"">3372907052090</Timestamp><Current dt:dt=""r8"">0</Current><DateUtc dt:dt=""string"">2019-02-06T17:09:39Z</DateUtc></FrequencyChange></FrequencyChanges></Clock>\n",RMEBPD Clinical Cog Load (2.13.15) Laptop version (2)-2989-1,60.006,1.0.0.476,Keyboard,1,MZ,1358081430,Full,3.0.3.60,3.0.3.60,2/6/2019,2/6/2019 17:09,12:09:40,3.0.3.43,3,Keyboard,1,1103,2371302,Keyboard,1,1404,2370187,?,Keyboard,3,1,3,,Keyboard,Keyboard,1,1,Keyboard,-999999,28,1693778,1,3806,1697584,,,,Keyboard,RME,0,1,Keyboard,-999999,17,1683679,4,10071,1693750,BlockList,0,,Keyboard,-999999,14,2371316,{TAB},1357,2372673,,,,19,,,,,,,,,,,,,2,1,35 copy.bmp,1,1,Keyboard,-999999,13,2059344,1,1448,2060792,K62*mF3,m,,,,,,,,RMEProc,1,2,Keyboard,-999999,99,2036996,2,22335,2059331,35,1,19,RMETrialList,,,,,,,
RMEBPD Clinical Cog Load (2.13.15) Laptop version (2),2989,1,"<?xml version=""1.0""?>\n<Clock xmlns:dt=""urn:schemas-microsoft-com:datatypes""><Description dt:dt=""string"">E-Prime Primary Realtime Clock</Description><StartTime><Timestamp dt:dt=""int"">0</Timestamp><DateUtc dt:dt=""string"">2019-02-06T17:09:39Z</DateUtc></StartTime><FrequencyChanges><FrequencyChange><Frequency dt:dt=""r8"">2922931</Frequency><Timestamp dt:dt=""r8"">3372907052090</Timestamp><Current dt:dt=""r8"">0</Current><DateUtc dt:dt=""string"">2019-02-06T17:09:39Z</DateUtc></FrequencyChange></FrequencyChanges></Clock>\n",RMEBPD Clinical Cog Load (2.13.15) Laptop version (2)-2989-1,60.006,1.0.0.476,Keyboard,1,MZ,1358081430,Full,3.0.3.60,3.0.3.60,2/6/2019,2/6/2019 17:09,12:09:40,3.0.3.43,3,Keyboard,1,1103,2371302,Keyboard,1,1404,2370187,?,Keyboard,3,1,3,,Keyboard,Keyboard,1,1,Keyboard,-999999,28,1693778,1,3806,1697584,,,,Keyboard,RME,0,1,Keyboard,-999999,17,1683679,4,10071,1693750,BlockList,0,,Keyboard,-999999,14,2371316,{TAB},1357,2372673,,,,20,,,,,,,,,,,,,3,1,23 copy.bmp,1,1,Keyboard,-999999,22,2096441,1,2783,2099224,bQ58*tY,*,,,,,,,,RMEProc,0,3,Keyboard,-999999,99,2065910,4,30509,2096419,23,1,20,RMETrialList,,,,,,,
RMEBPD Clinical Cog Load (2.13.15) Laptop version (2),2989,1,"<?xml version=""1.0""?>\n<Clock xmlns:dt=""urn:schemas-microsoft-com:datatypes""><Description dt:dt=""string"">E-Prime Primary Realtime Clock</Description><StartTime><Timestamp dt:dt=""int"">0</Timestamp><DateUtc dt:dt=""string"">2019-02-06T17:09:39Z</DateUtc></StartTime><FrequencyChanges><FrequencyChange><Frequency dt:dt=""r8"">2922931</Frequency><Timestamp dt:dt=""r8"">3372907052090</Timestamp><Current dt:dt=""r8"">0</Current><DateUtc dt:dt=""string"">2019-02-06T17:09:39Z</DateUtc></FrequencyChange></FrequencyChanges></Clock>\n",RMEBPD Clinical Cog Load (2.13.15) Laptop version (2)-2989-1,60.006,1.0.0.476,Keyboard,1,MZ,1358081430,Full,3.0.3.60,3.0.3.60,2/6/2019,2/6/2019 17:09,12:09:40,3.0.3.43,3,Keyboard,1,1103,2371302,Keyboard,1,1404,2370187,?,Keyboard,3,1,3,,Keyboard,Keyboard,1,1,Keyboard,-999999,28,1693778,1,3806,1697584,,,,Keyboard,RME,0,1,Keyboard,-999999,17,1683679,4,10071,1693750,BlockList,0,,Keyboard,-999999,14,2371316,{TAB},1357,2372673,,,,21,,,,,,,,,,,,,2,2,16 copy.bmp,0,2,Keyboard,-999999,15,2111573,1,2205,2113778,U*9gq51,Q,,,,,,,,RMEProc,0,2,Keyboard,-999999,99,2104340,4,7218,2111558,16,1,21,RMETrialList,,,,,,,
RMEBPD Clinical Cog Load (2.13.15) Laptop version (2),2989,1,"<?xml version=""1.0""?>\n<Clock xmlns:dt=""urn:schemas-microsoft-com:datatypes""><Description dt:dt=""string"">E-Prime Primary Realtime Clock</Description><StartTime><Timestamp dt:dt=""int"">0</Timestamp><DateUtc dt:dt=""string"">2019-02-06T17:09:39Z</DateUtc></StartTime><FrequencyChanges><FrequencyChange><Frequency dt:dt=""r8"">2922931</Frequency><Timestamp dt:dt=""r8"">3372907052090</Timestamp><Current dt:dt=""r8"">0</Current><DateUtc dt:dt=""string"">2019-02-06T17:09:39Z</DateUtc></FrequencyChange></FrequencyChanges></Clock>\n",RMEBPD Clinical Cog Load (2.13.15) Laptop version (2)-2989-1,60.006,1.0.0.476,Keyboard,1,MZ,1358081430,Full,3.0.3.60,3.0.3.60,2/6/2019,2/6/2019 17:09,12:09:40,3.0.3.43,3,Keyboard,1,1103,2371302,Keyboard,1,1404,2370187,?,Keyboard,3,1,3,,Keyboard,Keyboard,1,1,Keyboard,-999999,28,1693778,1,3806,1697584,,,,Keyboard,RME,0,1,Keyboard,-999999,17,1683679,4,10071,1693750,BlockList,0,,Keyboard,-999999,14,2371316,{TAB},1357,2372673,,,,22,,,,,,,,,,,,,3,2,36 copy.bmp,1,2,Keyboard,-999999,23,2126338,2,1689,2128027,*9x54tF,^,,,,,,,,RMEProc,1,3,Keyboard,-999999,100,2118906,3,7409,2126315,36,1,22,RMETrialList,,,,,,,
RMEBPD Clinical Cog Load (2.13.15) Laptop version (2),2989,1,"<?xml version=""1.0""?>\n<Clock xmlns:dt=""urn:schemas-microsoft-com:datatypes""><Description dt:dt=""string"">E-Prime Primary Realtime Clock</Description><StartTime><Timestamp dt:dt=""int"">0</Timestamp><DateUtc dt:dt=""string"">2019-02-06T17:09:39Z</DateUtc></StartTime><FrequencyChanges><FrequencyChange><Frequency dt:dt=""r8"">2922931</Frequency><Timestamp dt:dt=""r8"">3372907052090</Timestamp><Current dt:dt=""r8"">0</Current><DateUtc dt:dt=""string"">2019-02-06T17:09:39Z</DateUtc></FrequencyChange></FrequencyChanges></Clock>\n",RMEBPD Clinical Cog Load (2.13.15) Laptop version (2)-2989-1,60.006,1.0.0.476,Keyboard,1,MZ,1358081430,Full,3.0.3.60,3.0.3.60,2/6/2019,2/6/2019 17:09,12:09:40,3.0.3.43,3,Keyboard,1,1103,2371302,Keyboard,1,1404,2370187,?,Keyboard,3,1,3,,Keyboard,Keyboard,1,1,Keyboard,-999999,28,1693778,1,3806,1697584,,,,Keyboard,RME,0,1,Keyboard,-999999,17,1683679,4,10071,1693750,BlockList,0,,Keyboard,-999999,14,2371316,{TAB},1357,2372673,,,,23,,,,,,,,,,,,,1,2,18 copy.bmp,1,2,Keyboard,-999999,23,2140720,2,2266,2142986,bF6n*q8,e,,,,,,,,RMEProc,1,1,Keyboard,-999999,33,2133088,1,7609,2140697,18,1,23,RMETrialList,,,,,,,
RMEBPD Clinical Cog Load (2.13.15) Laptop version (2),2989,1,"<?xml version=""1.0""?>\n<Clock xmlns:dt=""urn:schemas-microsoft-com:datatypes""><Description dt:dt=""string"">E-Prime Primary Realtime Clock</Description><StartTime><Timestamp dt:dt=""int"">0</Timestamp><DateUtc dt:dt=""string"">2019-02-06T17:09:39Z</DateUtc></StartTime><FrequencyChanges><FrequencyChange><Frequency dt:dt=""r8"">2922931</Frequency><Timestamp dt:dt=""r8"">3372907052090</Timestamp><Current dt:dt=""r8"">0</Current><DateUtc dt:dt=""string"">2019-02-06T17:09:39Z</DateUtc></FrequencyChange></FrequencyChanges></Clock>\n",RMEBPD Clinical Cog Load (2.13.15) Laptop version (2)-2989-1,60.006,1.0.0.476,Keyboard,1,MZ,1358081430,Full,3.0.3.60,3.0.3.60,2/6/2019,2/6/2019 17:09,12:09:40,3.0.3.43,3,Keyboard,1,1103,2371302,Keyboard,1,1404,2370187,?,Keyboard,3,1,3,,Keyboard,Keyboard,1,1,Keyboard,-999999,28,1693778,1,3806,1697584,,,,Keyboard,RME,0,1,Keyboard,-999999,17,1683679,4,10071,1693750,BlockList,0,,Keyboard,-999999,14,2371316,{TAB},1357,2372673,,,,24,,,,,,,,,,,,,2,1,21 copy.bmp,1,1,Keyboard,-999999,12,2159868,1,1154,2161022,H#6s53Q,6,,,,,,,,RMEProc,1,2,Keyboard,-999999,50,2148053,2,11803,2159856,21,1,24,RMETrialList,,,,,,,
RMEBPD Clinical Cog Load (2.13.15) Laptop version (2),2989,1,"<?xml version=""1.0""?>\n<Clock xmlns:dt=""urn:schemas-microsoft-com:datatypes""><Description dt:dt=""string"">E-Prime Primary Realtime Clock</Description><StartTime><Timestamp dt:dt=""int"">0</Timestamp><DateUtc dt:dt=""string"">2019-02-06T17:09:39Z</DateUtc></StartTime><FrequencyChanges><FrequencyChange><Frequency dt:dt=""r8"">2922931</Frequency><Timestamp dt:dt=""r8"">3372907052090</Timestamp><Current dt:dt=""r8"">0</Current><DateUtc dt:dt=""string"">2019-02-06T17:09:39Z</DateUtc></FrequencyChange></FrequencyChanges></Clock>\n",RMEBPD Clinical Cog Load (2.13.15) Laptop version (2)-2989-1,60.006,1.0.0.476,Keyboard,1,MZ,1358081430,Full,3.0.3.60,3.0.3.60,2/6/2019,2/6/2019 17:09,12:09:40,3.0.3.43,3,Keyboard,1,1103,2371302,Keyboard,1,1404,2370187,?,Keyboard,3,1,3,,Keyboard,Keyboard,1,1,Keyboard,-999999,28,1693778,1,3806,1697584,,,,Keyboard,RME,0,1,Keyboard,-999999,17,1683679,4,10071,1693750,BlockList,0,,Keyboard,-999999,14,2371316,{TAB},1357,2372673,,,,25,,,,,,,,,,,,,4,1,29 copy.bmp,1,1,Keyboard,-999999,11,2175300,1,2918,2178218,Kq#694b,4,,,,,,,,RMEProc,0,4,Keyboard,-999999,33,2166068,3,9221,2175289,29,1,25,RMETrialList,,,,,,,
RMEBPD Clinical Cog Load (2.13.15) Laptop version (2),2989,1,"<?xml version=""1.0""?>\n<Clock xmlns:dt=""urn:schemas-microsoft-com:datatypes""><Description dt:dt=""string"">E-Prime Primary Realtime Clock</Description><StartTime><Timestamp dt:dt=""int"">0</Timestamp><DateUtc dt:dt=""string"">2019-02-06T17:09:39Z</DateUtc></StartTime><FrequencyChanges><FrequencyChange><Frequency dt:dt=""r8"">2922931</Frequency><Timestamp dt:dt=""r8"">3372907052090</Timestamp><Current dt:dt=""r8"">0</Current><DateUtc dt:dt=""string"">2019-02-06T17:09:39Z</DateUtc></FrequencyChange></FrequencyChanges></Clock>\n",RMEBPD Clinical Cog Load (2.13.15) Laptop version (2)-2989-1,60.006,1.0.0.476,Keyboard,1,MZ,1358081430,Full,3.0.3.60,3.0.3.60,2/6/2019,2/6/2019 17:09,12:09:40,3.0.3.43,3,Keyboard,1,1103,2371302,Keyboard,1,1404,2370187,?,Keyboard,3,1,3,,Keyboard,Keyboard,1,1,Keyboard,-999999,28,1693778,1,3806,1697584,,,,Keyboard,RME,0,1,Keyboard,-999999,17,1683679,4,10071,1693750,BlockList,0,,Keyboard,-999999,14,2371316,{TAB},1357,2372673,,,,26,,,,,,,,,,,,,4,2,14 copy.bmp,1,2,Keyboard,-999999,23,2192266,2,1127,2193393,Ex7J2b#,V,,,,,,,,RMEProc,1,4,Keyboard,-999999,33,2183266,4,8977,2192243,14,1,26,RMETrialList,,,,,,,
RMEBPD Clinical Cog Load (2.13.15) Laptop version (2),2989,1,"<?xml version=""1.0""?>\n<Clock xmlns:dt=""urn:schemas-microsoft-com:datatypes""><Description dt:dt=""string"">E-Prime Primary Realtime Clock</Description><StartTime><Timestamp dt:dt=""int"">0</Timestamp><DateUtc dt:dt=""string"">2019-02-06T17:09:39Z</DateUtc></StartTime><FrequencyChanges><FrequencyChange><Frequency dt:dt=""r8"">2922931</Frequency><Timestamp dt:dt=""r8"">3372907052090</Timestamp><Current dt:dt=""r8"">0</Current><DateUtc dt:dt=""string"">2019-02-06T17:09:39Z</DateUtc></FrequencyChange></FrequencyChanges></Clock>\n",RMEBPD Clinical Cog Load (2.13.15) Laptop version (2)-2989-1,60.006,1.0.0.476,Keyboard,1,MZ,1358081430,Full,3.0.3.60,3.0.3.60,2/6/2019,2/6/2019 17:09,12:09:40,3.0.3.43,3,Keyboard,1,1103,2371302,Keyboard,1,1404,2370187,?,Keyboard,3,1,3,,Keyboard,Keyboard,1,1,Keyboard,-999999,28,1693778,1,3806,1697584,,,,Keyboard,RME,0,1,Keyboard,-999999,17,1683679,4,10071,1693750,BlockList,0,,Keyboard,-999999,14,2371316,{TAB},1357,2372673,,,,27,,,,,,,,,,,,,3,1,03 copy.bmp,1,1,Keyboard,-999999,25,2214180,1,3787,2217967,*y6G93w,*,,,,,,,,RMEProc,1,3,Keyboard,-999999,50,2198465,3,15689,2214154,3,1,27,RMETrialList,,,,,,,
RMEBPD Clinical Cog Load (2.13.15) Laptop version (2),2989,1,"<?xml version=""1.0""?>\n<Clock xmlns:dt=""urn:schemas-microsoft-com:datatypes""><Description dt:dt=""string"">E-Prime Primary Realtime Clock</Description><StartTime><Timestamp dt:dt=""int"">0</Timestamp><DateUtc dt:dt=""string"">2019-02-06T17:09:39Z</DateUtc></StartTime><FrequencyChanges><FrequencyChange><Frequency dt:dt=""r8"">2922931</Frequency><Timestamp dt:dt=""r8"">3372907052090</Timestamp><Current dt:dt=""r8"">0</Current><DateUtc dt:dt=""string"">2019-02-06T17:09:39Z</DateUtc></FrequencyChange></FrequencyChanges></Clock>\n",RMEBPD Clinical Cog Load (2.13.15) Laptop version (2)-2989-1,60.006,1.0.0.476,Keyboard,1,MZ,1358081430,Full,3.0.3.60,3.0.3.60,2/6/2019,2/6/2019 17:09,12:09:40,3.0.3.43,3,Keyboard,1,1103,2371302,Keyboard,1,1404,2370187,?,Keyboard,3,1,3,,Keyboard,Keyboard,1,1,Keyboard,-999999,28,1693778,1,3806,1697584,,,,Keyboard,RME,0,1,Keyboard,-999999,17,1683679,4,10071,1693750,BlockList,0,,Keyboard,-999999,14,2371316,{TAB},1357,2372673,,,,28,,,,,,,,,,,,,1,2,32 copy.bmp,0,2,Keyboard,-999999,28,2236062,1,1474,2237536,Ty34*g5,j,,,,,,,,RMEProc,1,1,Keyboard,-999999,33,2223013,1,13021,2236034,32,1,28,RMETrialList,,,,,,,
RMEBPD Clinical Cog Load (2.13.15) Laptop version (2),2989,1,"<?xml version=""1.0""?>\n<Clock xmlns:dt=""urn:schemas-microsoft-com:datatypes""><Description dt:dt=""string"">E-Prime Primary Realtime Clock</Description><StartTime><Timestamp dt:dt=""int"">0</Timestamp><DateUtc dt:dt=""string"">2019-02-06T17:09:39Z</DateUtc></StartTime><FrequencyChanges><FrequencyChange><Frequency dt:dt=""r8"">2922931</Frequency><Timestamp dt:dt=""r8"">3372907052090</Timestamp><Current dt:dt=""r8"">0</Current><DateUtc dt:dt=""string"">2019-02-06T17:09:39Z</DateUtc></FrequencyChange></FrequencyChanges></Clock>\n",RMEBPD Clinical Cog Load (2.13.15) Laptop version (2)-2989-1,60.006,1.0.0.476,Keyboard,1,MZ,1358081430,Full,3.0.3.60,3.0.3.60,2/6/2019,2/6/2019 17:09,12:09:40,3.0.3.43,3,Keyboard,1,1103,2371302,Keyboard,1,1404,2370187,?,Keyboard,3,1,3,,Keyboard,Keyboard,1,1,Keyboard,-999999,28,1693778,1,3806,1697584,,,,Keyboard,RME,0,1,Keyboard,-999999,17,1683679,4,10071,1693750,BlockList,0,,Keyboard,-999999,14,2371316,{TAB},1357,2372673,,,,29,,,,,,,,,,,,,4,1,19 copy.bmp,1,1,Keyboard,-999999,13,2249477,1,1623,2251100,v5GH79*,5,,,,,,,,RMEProc,1,4,Keyboard,-999999,33,2242594,4,6870,2249464,19,1,29,RMETrialList,,,,,,,
RMEBPD Clinical Cog Load (2.13.15) Laptop version (2),2989,1,"<?xml version=""1.0""?>\n<Clock xmlns:dt=""urn:schemas-microsoft-com:datatypes""><Description dt:dt=""string"">E-Prime Primary Realtime Clock</Description><StartTime><Timestamp dt:dt=""int"">0</Timestamp><DateUtc dt:dt=""string"">2019-02-06T17:09:39Z</DateUtc></StartTime><FrequencyChanges><FrequencyChange><Frequency dt:dt=""r8"">2922931</Frequency><Timestamp dt:dt=""r8"">3372907052090</Timestamp><Current dt:dt=""r8"">0</Current><DateUtc dt:dt=""string"">2019-02-06T17:09:39Z</DateUtc></FrequencyChange></FrequencyChanges></Clock>\n",RMEBPD Clinical Cog Load (2.13.15) Laptop version (2)-2989-1,60.006,1.0.0.476,Keyboard,1,MZ,1358081430,Full,3.0.3.60,3.0.3.60,2/6/2019,2/6/2019 17:09,12:09:40,3.0.3.43,3,Keyboard,1,1103,2371302,Keyboard,1,1404,2370187,?,Keyboard,3,1,3,,Keyboard,Keyboard,1,1,Keyboard,-999999,28,1693778,1,3806,1697584,,,,Keyboard,RME,0,1,Keyboard,-999999,17,1683679,4,10071,1693750,BlockList,0,,Keyboard,-999999,14,2371316,{TAB},1357,2372673,,,,30,,,,,,,,,,,,,3,1,07 copy.bmp,1,1,Keyboard,-999999,19,2264342,1,1359,2265701,s37PX#j,7,,,,,,,,RMEProc,0,3,Keyboard,-999999,33,2256160,1,8163,2264323,7,1,30,RMETrialList,,,,,,,
RMEBPD Clinical Cog Load (2.13.15) Laptop version (2),2989,1,"<?xml version=""1.0""?>\n<Clock xmlns:dt=""urn:schemas-microsoft-com:datatypes""><Description dt:dt=""string"">E-Prime Primary Realtime Clock</Description><StartTime><Timestamp dt:dt=""int"">0</Timestamp><DateUtc dt:dt=""string"">2019-02-06T17:09:39Z</DateUtc></StartTime><FrequencyChanges><FrequencyChange><Frequency dt:dt=""r8"">2922931</Frequency><Timestamp dt:dt=""r8"">3372907052090</Timestamp><Current dt:dt=""r8"">0</Current><DateUtc dt:dt=""string"">2019-02-06T17:09:39Z</DateUtc></FrequencyChange></FrequencyChanges></Clock>\n",RMEBPD Clinical Cog Load (2.13.15) Laptop version (2)-2989-1,60.006,1.0.0.476,Keyboard,1,MZ,1358081430,Full,3.0.3.60,3.0.3.60,2/6/2019,2/6/2019 17:09,12:09:40,3.0.3.43,3,Keyboard,1,1103,2371302,Keyboard,1,1404,2370187,?,Keyboard,3,1,3,,Keyboard,Keyboard,1,1,Keyboard,-999999,28,1693778,1,3806,1697584,,,,Keyboard,RME,0,1,Keyboard,-999999,17,1683679,4,10071,1693750,BlockList,0,,Keyboard,-999999,14,2371316,{TAB},1357,2372673,,,,31,,,,,,,,,,,,,1,1,17 copy.bmp,1,1,Keyboard,-999999,21,2285790,1,2607,2288397,38qJ#rQ,q,,,,,,,,RMEProc,1,1,Keyboard,-999999,33,2270758,1,15011,2285769,17,1,31,RMETrialList,,,,,,,
RMEBPD Clinical Cog Load (2.13.15) Laptop version (2),2989,1,"<?xml version=""1.0""?>\n<Clock xmlns:dt=""urn:schemas-microsoft-com:datatypes""><Description dt:dt=""string"">E-Prime Primary Realtime Clock</Description><StartTime><Timestamp dt:dt=""int"">0</Timestamp><DateUtc dt:dt=""string"">2019-02-06T17:09:39Z</DateUtc></StartTime><FrequencyChanges><FrequencyChange><Frequency dt:dt=""r8"">2922931</Frequency><Timestamp dt:dt=""r8"">3372907052090</Timestamp><Current dt:dt=""r8"">0</Current><DateUtc dt:dt=""string"">2019-02-06T17:09:39Z</DateUtc></FrequencyChange></FrequencyChanges></Clock>\n",RMEBPD Clinical Cog Load (2.13.15) Laptop version (2)-2989-1,60.006,1.0.0.476,Keyboard,1,MZ,1358081430,Full,3.0.3.60,3.0.3.60,2/6/2019,2/6/2019 17:09,12:09:40,3.0.3.43,3,Keyboard,1,1103,2371302,Keyboard,1,1404,2370187,?,Keyboard,3,1,3,,Keyboard,Keyboard,1,1,Keyboard,-999999,28,1693778,1,3806,1697584,,,,Keyboard,RME,0,1,Keyboard,-999999,17,1683679,4,10071,1693750,BlockList,0,,Keyboard,-999999,14,2371316,{TAB},1357,2372673,,,,32,,,,,,,,,,,,,3,2,34 copy.bmp,1,2,Keyboard,-999999,23,2304105,2,3094,2307199,K#5Nt98,f,,,,,,,,RMEProc,1,3,Keyboard,-999999,33,2293456,3,10626,2304082,34,1,32,RMETrialList,,,,,,,
RMEBPD Clinical Cog Load (2.13.15) Laptop version (2),2989,1,"<?xml version=""1.0""?>\n<Clock xmlns:dt=""urn:schemas-microsoft-com:datatypes""><Description dt:dt=""string"">E-Prime Primary Realtime Clock</Description><StartTime><Timestamp dt:dt=""int"">0</Timestamp><DateUtc dt:dt=""string"">2019-02-06T17:09:39Z</DateUtc></StartTime><FrequencyChanges><FrequencyChange><Frequency dt:dt=""r8"">2922931</Frequency><Timestamp dt:dt=""r8"">3372907052090</Timestamp><Current dt:dt=""r8"">0</Current><DateUtc dt:dt=""string"">2019-02-06T17:09:39Z</DateUtc></FrequencyChange></FrequencyChanges></Clock>\n",RMEBPD Clinical Cog Load (2.13.15) Laptop version (2)-2989-1,60.006,1.0.0.476,Keyboard,1,MZ,1358081430,Full,3.0.3.60,3.0.3.60,2/6/2019,2/6/2019 17:09,12:09:40,3.0.3.43,3,Keyboard,1,1103,2371302,Keyboard,1,1404,2370187,?,Keyboard,3,1,3,,Keyboard,Keyboard,1,1,Keyboard,-999999,28,1693778,1,3806,1697584,,,,Keyboard,RME,0,1,Keyboard,-999999,17,1683679,4,10071,1693750,BlockList,0,,Keyboard,-999999,14,2371316,{TAB},1357,2372673,,,,33,,,,,,,,,,,,,3,1,11 copy.bmp,1,1,Keyboard,-999999,16,2321420,1,1076,2322496,pD8#12b,p,,,,,,,,RMEProc,1,3,Keyboard,-999999,33,2312255,3,9149,2321404,11,1,33,RMETrialList,,,,,,,
RMEBPD Clinical Cog Load (2.13.15) Laptop version (2),2989,1,"<?xml version=""1.0""?>\n<Clock xmlns:dt=""urn:schemas-microsoft-com:datatypes""><Description dt:dt=""string"">E-Prime Primary Realtime Clock</Description><StartTime><Timestamp dt:dt=""int"">0</Timestamp><DateUtc dt:dt=""string"">2019-02-06T17:09:39Z</DateUtc></StartTime><FrequencyChanges><FrequencyChange><Frequency dt:dt=""r8"">2922931</Frequency><Timestamp dt:dt=""r8"">3372907052090</Timestamp><Current dt:dt=""r8"">0</Current><DateUtc dt:dt=""string"">2019-02-06T17:09:39Z</DateUtc></FrequencyChange></FrequencyChanges></Clock>\n",RMEBPD Clinical Cog Load (2.13.15) Laptop version (2)-2989-1,60.006,1.0.0.476,Keyboard,1,MZ,1358081430,Full,3.0.3.60,3.0.3.60,2/6/2019,2/6/2019 17:09,12:09:40,3.0.3.43,3,Keyboard,1,1103,2371302,Keyboard,1,1404,2370187,?,Keyboard,3,1,3,,Keyboard,Keyboard,1,1,Keyboard,-999999,28,1693778,1,3806,1697584,,,,Keyboard,RME,0,1,Keyboard,-999999,17,1683679,4,10071,1693750,BlockList,0,,Keyboard,-999999,14,2371316,{TAB},1357,2372673,,,,34,,,,,,,,,,,,,3,2,26 copy.bmp,1,2,Keyboard,-999999,15,2330836,2,1962,2332798,pDF59#1,q,,,,,,,,RMEProc,1,3,Keyboard,-999999,33,2327553,3,3268,2330821,26,1,34,RMETrialList,,,,,,,
RMEBPD Clinical Cog Load (2.13.15) Laptop version (2),2989,1,"<?xml version=""1.0""?>\n<Clock xmlns:dt=""urn:schemas-microsoft-com:datatypes""><Description dt:dt=""string"">E-Prime Primary Realtime Clock</Description><StartTime><Timestamp dt:dt=""int"">0</Timestamp><DateUtc dt:dt=""string"">2019-02-06T17:09:39Z</DateUtc></StartTime><FrequencyChanges><FrequencyChange><Frequency dt:dt=""r8"">2922931</Frequency><Timestamp dt:dt=""r8"">3372907052090</Timestamp><Current dt:dt=""r8"">0</Current><DateUtc dt:dt=""string"">2019-02-06T17:09:39Z</DateUtc></FrequencyChange></FrequencyChanges></Clock>\n",RMEBPD Clinical Cog Load (2.13.15) Laptop version (2)-2989-1,60.006,1.0.0.476,Keyboard,1,MZ,1358081430,Full,3.0.3.60,3.0.3.60,2/6/2019,2/6/2019 17:09,12:09:40,3.0.3.43,3,Keyboard,1,1103,2371302,Keyboard,1,1404,2370187,?,Keyboard,3,1,3,,Keyboard,Keyboard,1,1,Keyboard,-999999,28,1693778,1,3806,1697584,,,,Keyboard,RME,0,1,Keyboard,-999999,17,1683679,4,10071,1693750,BlockList,0,,Keyboard,-999999,14,2371316,{TAB},1357,2372673,,,,35,,,,,,,,,,,,,4,1,25 copy.bmp,1,1,Keyboard,-999999,26,2351418,1,1709,2353127,G97hv*3,h,,,,,,,,RMEProc,0,4,Keyboard,-999999,33,2337852,3,13540,2351392,25,1,35,RMETrialList,,,,,,,
RMEBPD Clinical Cog Load (2.13.15) Laptop version (2),2989,1,"<?xml version=""1.0""?>\n<Clock xmlns:dt=""urn:schemas-microsoft-com:datatypes""><Description dt:dt=""string"">E-Prime Primary Realtime Clock</Description><StartTime><Timestamp dt:dt=""int"">0</Timestamp><DateUtc dt:dt=""string"">2019-02-06T17:09:39Z</DateUtc></StartTime><FrequencyChanges><FrequencyChange><Frequency dt:dt=""r8"">2922931</Frequency><Timestamp dt:dt=""r8"">3372907052090</Timestamp><Current dt:dt=""r8"">0</Current><DateUtc dt:dt=""string"">2019-02-06T17:09:39Z</DateUtc></FrequencyChange></FrequencyChanges></Clock>\n",RMEBPD Clinical Cog Load (2.13.15) Laptop version (2)-2989-1,60.006,1.0.0.476,Keyboard,1,MZ,1358081430,Full,3.0.3.60,3.0.3.60,2/6/2019,2/6/2019 17:09,12:09:40,3.0.3.43,3,Keyboard,1,1103,2371302,Keyboard,1,1404,2370187,?,Keyboard,3,1,3,,Keyboard,Keyboard,1,1,Keyboard,-999999,28,1693778,1,3806,1697584,,,,Keyboard,RME,0,1,Keyboard,-999999,17,1683679,4,10071,1693750,BlockList,0,,Keyboard,-999999,14,2371316,{TAB},1357,2372673,,,,36,,,,,,,,,,,,,3,1,05 copy.bmp,1,1,Keyboard,-999999,22,2367883,1,882,2368765,#pC53Wz,p,,,,,,,,RMEProc,1,3,Keyboard,-999999,33,2358184,3,9677,2367861,5,1,36,RMETrialList,,,,,,,
RMEBPD Clinical Cog Load (2.13.15) Laptop version (2),2989,1,"<?xml version=""1.0""?>\n<Clock xmlns:dt=""urn:schemas-microsoft-com:datatypes""><Description dt:dt=""string"">E-Prime Primary Realtime Clock</Description><StartTime><Timestamp dt:dt=""int"">0</Timestamp><DateUtc dt:dt=""string"">2019-02-06T17:09:39Z</DateUtc></StartTime><FrequencyChanges><FrequencyChange><Frequency dt:dt=""r8"">2922931</Frequency><Timestamp dt:dt=""r8"">3372907052090</Timestamp><Current dt:dt=""r8"">0</Current><DateUtc dt:dt=""string"">2019-02-06T17:09:39Z</DateUtc></FrequencyChange></FrequencyChanges></Clock>\n",RMEBPD Clinical Cog Load (2.13.15) Laptop version (2)-2989-1,60.006,1.0.0.476,Keyboard,1,MZ,1358081430,Full,3.0.3.60,3.0.3.60,2/6/2019,2/6/2019 17:09,12:09:40,3.0.3.43,4,,,,,,,,,?,,4,1,4,,,,,,,,,,,,,Keyboard,1122,2373821,,PANAS,,,,,,,,,,BlockList,,,,,,,,,,,,,1,,,,,,,,,,,,,,,PANAS01.bmp,,,,,,,,,,,,1,2,23,Keyboard,3,5944,2379793,PANASProc,,,,,,,,,,,,,PANASQuestions,,,,,,,
RMEBPD Clinical Cog Load (2.13.15) Laptop version (2),2989,1,"<?xml version=""1.0""?>\n<Clock xmlns:dt=""urn:schemas-microsoft-com:datatypes""><Description dt:dt=""string"">E-Prime Primary Realtime Clock</Description><StartTime><Timestamp dt:dt=""int"">0</Timestamp><DateUtc dt:dt=""string"">2019-02-06T17:09:39Z</DateUtc></StartTime><FrequencyChanges><FrequencyChange><Frequency dt:dt=""r8"">2922931</Frequency><Timestamp dt:dt=""r8"">3372907052090</Timestamp><Current dt:dt=""r8"">0</Current><DateUtc dt:dt=""string"">2019-02-06T17:09:39Z</DateUtc></FrequencyChange></FrequencyChanges></Clock>\n",RMEBPD Clinical Cog Load (2.13.15) Laptop version (2)-2989-1,60.006,1.0.0.476,Keyboard,1,MZ,1358081430,Full,3.0.3.60,3.0.3.60,2/6/2019,2/6/2019 17:09,12:09:40,3.0.3.43,4,,,,,,,,,?,,4,1,4,,,,,,,,,,,,,Keyboard,1122,2373821,,PANAS,,,,,,,,,,BlockList,,,,,,,,,,,,,2,,,,,,,,,,,,,,,PANAS02.bmp,,,,,,,,,,,,2,2,24,Keyboard,2,3429,2383244,PANASProc,,,,,,,,,,,,,PANASQuestions,,,,,,,
RMEBPD Clinical Cog Load (2.13.15) Laptop version (2),2989,1,"<?xml version=""1.0""?>\n<Clock xmlns:dt=""urn:schemas-microsoft-com:datatypes""><Description dt:dt=""string"">E-Prime Primary Realtime Clock</Description><StartTime><Timestamp dt:dt=""int"">0</Timestamp><DateUtc dt:dt=""string"">2019-02-06T17:09:39Z</DateUtc></StartTime><FrequencyChanges><FrequencyChange><Frequency dt:dt=""r8"">2922931</Frequency><Timestamp dt:dt=""r8"">3372907052090</Timestamp><Current dt:dt=""r8"">0</Current><DateUtc dt:dt=""string"">2019-02-06T17:09:39Z</DateUtc></FrequencyChange></FrequencyChanges></Clock>\n",RMEBPD Clinical Cog Load (2.13.15) Laptop version (2)-2989-1,60.006,1.0.0.476,Keyboard,1,MZ,1358081430,Full,3.0.3.60,3.0.3.60,2/6/2019,2/6/2019 17:09,12:09:40,3.0.3.43,4,,,,,,,,,?,,4,1,4,,,,,,,,,,,,,Keyboard,1122,2373821,,PANAS,,,,,,,,,,BlockList,,,,,,,,,,,,,3,,,,,,,,,,,,,,,PANAS03.bmp,,,,,,,,,,,,3,2,25,Keyboard,3,5285,2388550,PANASProc,,,,,,,,,,,,,PANASQuestions,,,,,,,
RMEBPD Clinical Cog Load (2.13.15) Laptop version (2),2989,1,"<?xml version=""1.0""?>\n<Clock xmlns:dt=""urn:schemas-microsoft-com:datatypes""><Description dt:dt=""string"">E-Prime Primary Realtime Clock</Description><StartTime><Timestamp dt:dt=""int"">0</Timestamp><DateUtc dt:dt=""string"">2019-02-06T17:09:39Z</DateUtc></StartTime><FrequencyChanges><FrequencyChange><Frequency dt:dt=""r8"">2922931</Frequency><Timestamp dt:dt=""r8"">3372907052090</Timestamp><Current dt:dt=""r8"">0</Current><DateUtc dt:dt=""string"">2019-02-06T17:09:39Z</DateUtc></FrequencyChange></FrequencyChanges></Clock>\n",RMEBPD Clinical Cog Load (2.13.15) Laptop version (2)-2989-1,60.006,1.0.0.476,Keyboard,1,MZ,1358081430,Full,3.0.3.60,3.0.3.60,2/6/2019,2/6/2019 17:09,12:09:40,3.0.3.43,4,,,,,,,,,?,,4,1,4,,,,,,,,,,,,,Keyboard,1122,2373821,,PANAS,,,,,,,,,,BlockList,,,,,,,,,,,,,4,,,,,,,,,,,,,,,PANAS04.bmp,,,,,,,,,,,,4,2,26,Keyboard,2,3470,2392051,PANASProc,,,,,,,,,,,,,PANASQuestions,,,,,,,
RMEBPD Clinical Cog Load (2.13.15) Laptop version (2),2989,1,"<?xml version=""1.0""?>\n<Clock xmlns:dt=""urn:schemas-microsoft-com:datatypes""><Description dt:dt=""string"">E-Prime Primary Realtime Clock</Description><StartTime><Timestamp dt:dt=""int"">0</Timestamp><DateUtc dt:dt=""string"">2019-02-06T17:09:39Z</DateUtc></StartTime><FrequencyChanges><FrequencyChange><Frequency dt:dt=""r8"">2922931</Frequency><Timestamp dt:dt=""r8"">3372907052090</Timestamp><Current dt:dt=""r8"">0</Current><DateUtc dt:dt=""string"">2019-02-06T17:09:39Z</DateUtc></FrequencyChange></FrequencyChanges></Clock>\n",RMEBPD Clinical Cog Load (2.13.15) Laptop version (2)-2989-1,60.006,1.0.0.476,Keyboard,1,MZ,1358081430,Full,3.0.3.60,3.0.3.60,2/6/2019,2/6/2019 17:09,12:09:40,3.0.3.43,4,,,,,,,,,?,,4,1,4,,,,,,,,,,,,,Keyboard,1122,2373821,,PANAS,,,,,,,,,,BlockList,,,,,,,,,,,,,5,,,,,,,,,,,,,,,PANAS05.bmp,,,,,,,,,,,,5,2,27,Keyboard,3,3774,2395855,PANASProc,,,,,,,,,,,,,PANASQuestions,,,,,,,
RMEBPD Clinical Cog Load (2.13.15) Laptop version (2),2989,1,"<?xml version=""1.0""?>\n<Clock xmlns:dt=""urn:schemas-microsoft-com:datatypes""><Description dt:dt=""string"">E-Prime Primary Realtime Clock</Description><StartTime><Timestamp dt:dt=""int"">0</Timestamp><DateUtc dt:dt=""string"">2019-02-06T17:09:39Z</DateUtc></StartTime><FrequencyChanges><FrequencyChange><Frequency dt:dt=""r8"">2922931</Frequency><Timestamp dt:dt=""r8"">3372907052090</Timestamp><Current dt:dt=""r8"">0</Current><DateUtc dt:dt=""string"">2019-02-06T17:09:39Z</DateUtc></FrequencyChange></FrequencyChanges></Clock>\n",RMEBPD Clinical Cog Load (2.13.15) Laptop version (2)-2989-1,60.006,1.0.0.476,Keyboard,1,MZ,1358081430,Full,3.0.3.60,3.0.3.60,2/6/2019,2/6/2019 17:09,12:09:40,3.0.3.43,4,,,,,,,,,?,,4,1,4,,,,,,,,,,,,,Keyboard,1122,2373821,,PANAS,,,,,,,,,,BlockList,,,,,,,,,,,,,6,,,,,,,,,,,,,,,PANAS06.bmp,,,,,,,,,,,,6,2,28,Keyboard,1,3575,2399455,PANASProc,,,,,,,,,,,,,PANASQuestions,,,,,,,
RMEBPD Clinical Cog Load (2.13.15) Laptop version (2),2989,1,"<?xml version=""1.0""?>\n<Clock xmlns:dt=""urn:schemas-microsoft-com:datatypes""><Description dt:dt=""string"">E-Prime Primary Realtime Clock</Description><StartTime><Timestamp dt:dt=""int"">0</Timestamp><DateUtc dt:dt=""string"">2019-02-06T17:09:39Z</DateUtc></StartTime><FrequencyChanges><FrequencyChange><Frequency dt:dt=""r8"">2922931</Frequency><Timestamp dt:dt=""r8"">3372907052090</Timestamp><Current dt:dt=""r8"">0</Current><DateUtc dt:dt=""string"">2019-02-06T17:09:39Z</DateUtc></FrequencyChange></FrequencyChanges></Clock>\n",RMEBPD Clinical Cog Load (2.13.15) Laptop version (2)-2989-1,60.006,1.0.0.476,Keyboard,1,MZ,1358081430,Full,3.0.3.60,3.0.3.60,2/6/2019,2/6/2019 17:09,12:09:40,3.0.3.43,4,,,,,,,,,?,,4,1,4,,,,,,,,,,,,,Keyboard,1122,2373821,,PANAS,,,,,,,,,,BlockList,,,,,,,,,,,,,7,,,,,,,,,,,,,,,PANAS07.bmp,,,,,,,,,,,,7,2,29,Keyboard,3,1368,2400848,PANASProc,,,,,,,,,,,,,PANASQuestions,,,,,,,
RMEBPD Clinical Cog Load (2.13.15) Laptop version (2),2989,1,"<?xml version=""1.0""?>\n<Clock xmlns:dt=""urn:schemas-microsoft-com:datatypes""><Description dt:dt=""string"">E-Prime Primary Realtime Clock</Description><StartTime><Timestamp dt:dt=""int"">0</Timestamp><DateUtc dt:dt=""string"">2019-02-06T17:09:39Z</DateUtc></StartTime><FrequencyChanges><FrequencyChange><Frequency dt:dt=""r8"">2922931</Frequency><Timestamp dt:dt=""r8"">3372907052090</Timestamp><Current dt:dt=""r8"">0</Current><DateUtc dt:dt=""string"">2019-02-06T17:09:39Z</DateUtc></FrequencyChange></FrequencyChanges></Clock>\n",RMEBPD Clinical Cog Load (2.13.15) Laptop version (2)-2989-1,60.006,1.0.0.476,Keyboard,1,MZ,1358081430,Full,3.0.3.60,3.0.3.60,2/6/2019,2/6/2019 17:09,12:09:40,3.0.3.43,4,,,,,,,,,?,,4,1,4,,,,,,,,,,,,,Keyboard,1122,2373821,,PANAS,,,,,,,,,,BlockList,,,,,,,,,,,,,8,,,,,,,,,,,,,,,PANAS08.bmp,,,,,,,,,,,,8,2,30,Keyboard,1,3818,2404698,PANASProc,,,,,,,,,,,,,PANASQuestions,,,,,,,
RMEBPD Clinical Cog Load (2.13.15) Laptop version (2),2989,1,"<?xml version=""1.0""?>\n<Clock xmlns:dt=""urn:schemas-microsoft-com:datatypes""><Description dt:dt=""string"">E-Prime Primary Realtime Clock</Description><StartTime><Timestamp dt:dt=""int"">0</Timestamp><DateUtc dt:dt=""string"">2019-02-06T17:09:39Z</DateUtc></StartTime><FrequencyChanges><FrequencyChange><Frequency dt:dt=""r8"">2922931</Frequency><Timestamp dt:dt=""r8"">3372907052090</Timestamp><Current dt:dt=""r8"">0</Current><DateUtc dt:dt=""string"">2019-02-06T17:09:39Z</DateUtc></FrequencyChange></FrequencyChanges></Clock>\n",RMEBPD Clinical Cog Load (2.13.15) Laptop version (2)-2989-1,60.006,1.0.0.476,Keyboard,1,MZ,1358081430,Full,3.0.3.60,3.0.3.60,2/6/2019,2/6/2019 17:09,12:09:40,3.0.3.43,4,,,,,,,,,?,,4,1,4,,,,,,,,,,,,,Keyboard,1122,2373821,,PANAS,,,,,,,,,,BlockList,,,,,,,,,,,,,9,,,,,,,,,,,,,,,PANAS09.bmp,,,,,,,,,,,,9,2,31,Keyboard,1,5676,2410405,PANASProc,,,,,,,,,,,,,PANASQuestions,,,,,,,
RMEBPD Clinical Cog Load (2.13.15) Laptop version (2),2989,1,"<?xml version=""1.0""?>\n<Clock xmlns:dt=""urn:schemas-microsoft-com:datatypes""><Description dt:dt=""string"">E-Prime Primary Realtime Clock</Description><StartTime><Timestamp dt:dt=""int"">0</Timestamp><DateUtc dt:dt=""string"">2019-02-06T17:09:39Z</DateUtc></StartTime><FrequencyChanges><FrequencyChange><Frequency dt:dt=""r8"">2922931</Frequency><Timestamp dt:dt=""r8"">3372907052090</Timestamp><Current dt:dt=""r8"">0</Current><DateUtc dt:dt=""string"">2019-02-06T17:09:39Z</DateUtc></FrequencyChange></FrequencyChanges></Clock>\n",RMEBPD Clinical Cog Load (2.13.15) Laptop version (2)-2989-1,60.006,1.0.0.476,Keyboard,1,MZ,1358081430,Full,3.0.3.60,3.0.3.60,2/6/2019,2/6/2019 17:09,12:09:40,3.0.3.43,4,,,,,,,,,?,,4,1,4,,,,,,,,,,,,,Keyboard,1122,2373821,,PANAS,,,,,,,,,,BlockList,,,,,,,,,,,,,10,,,,,,,,,,,,,,,PANAS10.bmp,,,,,,,,,,,,10,2,32,Keyboard,3,1518,2411947,PANASProc,,,,,,,,,,,,,PANASQuestions,,,,,,,
RMEBPD Clinical Cog Load (2.13.15) Laptop version (2),2989,1,"<?xml version=""1.0""?>\n<Clock xmlns:dt=""urn:schemas-microsoft-com:datatypes""><Description dt:dt=""string"">E-Prime Primary Realtime Clock</Description><StartTime><Timestamp dt:dt=""int"">0</Timestamp><DateUtc dt:dt=""string"">2019-02-06T17:09:39Z</DateUtc></StartTime><FrequencyChanges><FrequencyChange><Frequency dt:dt=""r8"">2922931</Frequency><Timestamp dt:dt=""r8"">3372907052090</Timestamp><Current dt:dt=""r8"">0</Current><DateUtc dt:dt=""string"">2019-02-06T17:09:39Z</DateUtc></FrequencyChange></FrequencyChanges></Clock>\n",RMEBPD Clinical Cog Load (2.13.15) Laptop version (2)-2989-1,60.006,1.0.0.476,Keyboard,1,MZ,1358081430,Full,3.0.3.60,3.0.3.60,2/6/2019,2/6/2019 17:09,12:09:40,3.0.3.43,4,,,,,,,,,?,,4,1,4,,,,,,,,,,,,,Keyboard,1122,2373821,,PANAS,,,,,,,,,,BlockList,,,,,,,,,,,,,11,,,,,,,,,,,,,,,PANAS11.bmp,,,,,,,,,,,,11,2,33,Keyboard,3,1255,2413234,PANASProc,,,,,,,,,,,,,PANASQuestions,,,,,,,
RMEBPD Clinical Cog Load (2.13.15) Laptop version (2),2989,1,"<?xml version=""1.0""?>\n<Clock xmlns:dt=""urn:schemas-microsoft-com:datatypes""><Description dt:dt=""string"">E-Prime Primary Realtime Clock</Description><StartTime><Timestamp dt:dt=""int"">0</Timestamp><DateUtc dt:dt=""string"">2019-02-06T17:09:39Z</DateUtc></StartTime><FrequencyChanges><FrequencyChange><Frequency dt:dt=""r8"">2922931</Frequency><Timestamp dt:dt=""r8"">3372907052090</Timestamp><Current dt:dt=""r8"">0</Current><DateUtc dt:dt=""string"">2019-02-06T17:09:39Z</DateUtc></FrequencyChange></FrequencyChanges></Clock>\n",RMEBPD Clinical Cog Load (2.13.15) Laptop version (2)-2989-1,60.006,1.0.0.476,Keyboard,1,MZ,1358081430,Full,3.0.3.60,3.0.3.60,2/6/2019,2/6/2019 17:09,12:09:40,3.0.3.43,4,,,,,,,,,?,,4,1,4,,,,,,,,,,,,,Keyboard,1122,2373821,,PANAS,,,,,,,,,,BlockList,,,,,,,,,,,,,12,,,,,,,,,,,,,,,PANAS12.bmp,,,,,,,,,,,,12,2,34,Keyboard,1,3060,2416322,PANASProc,,,,,,,,,,,,,PANASQuestions,,,,,,,
RMEBPD Clinical Cog Load (2.13.15) Laptop version (2),2989,1,"<?xml version=""1.0""?>\n<Clock xmlns:dt=""urn:schemas-microsoft-com:datatypes""><Description dt:dt=""string"">E-Prime Primary Realtime Clock</Description><StartTime><Timestamp dt:dt=""int"">0</Timestamp><DateUtc dt:dt=""string"">2019-02-06T17:09:39Z</DateUtc></StartTime><FrequencyChanges><FrequencyChange><Frequency dt:dt=""r8"">2922931</Frequency><Timestamp dt:dt=""r8"">3372907052090</Timestamp><Current dt:dt=""r8"">0</Current><DateUtc dt:dt=""string"">2019-02-06T17:09:39Z</DateUtc></FrequencyChange></FrequencyChanges></Clock>\n",RMEBPD Clinical Cog Load (2.13.15) Laptop version (2)-2989-1,60.006,1.0.0.476,Keyboard,1,MZ,1358081430,Full,3.0.3.60,3.0.3.60,2/6/2019,2/6/2019 17:09,12:09:40,3.0.3.43,4,,,,,,,,,?,,4,1,4,,,,,,,,,,,,,Keyboard,1122,2373821,,PANAS,,,,,,,,,,BlockList,,,,,,,,,,,,,13,,,,,,,,,,,,,,,PANAS13.bmp,,,,,,,,,,,,13,2,35,Keyboard,3,2385,2418730,PANASProc,,,,,,,,,,,,,PANASQuestions,,,,,,,
RMEBPD Clinical Cog Load (2.13.15) Laptop version (2),2989,1,"<?xml version=""1.0""?>\n<Clock xmlns:dt=""urn:schemas-microsoft-com:datatypes""><Description dt:dt=""string"">E-Prime Primary Realtime Clock</Description><StartTime><Timestamp dt:dt=""int"">0</Timestamp><DateUtc dt:dt=""string"">2019-02-06T17:09:39Z</DateUtc></StartTime><FrequencyChanges><FrequencyChange><Frequency dt:dt=""r8"">2922931</Frequency><Timestamp dt:dt=""r8"">3372907052090</Timestamp><Current dt:dt=""r8"">0</Current><DateUtc dt:dt=""string"">2019-02-06T17:09:39Z</DateUtc></FrequencyChange></FrequencyChanges></Clock>\n",RMEBPD Clinical Cog Load (2.13.15) Laptop version (2)-2989-1,60.006,1.0.0.476,Keyboard,1,MZ,1358081430,Full,3.0.3.60,3.0.3.60,2/6/2019,2/6/2019 17:09,12:09:40,3.0.3.43,4,,,,,,,,,?,,4,1,4,,,,,,,,,,,,,Keyboard,1122,2373821,,PANAS,,,,,,,,,,BlockList,,,,,,,,,,,,,14,,,,,,,,,,,,,,,PANAS14.bmp,,,,,,,,,,,,14,2,36,Keyboard,1,5034,2423795,PANASProc,,,,,,,,,,,,,PANASQuestions,,,,,,,
