ExperimentName,Subject,Session,Clock.Information,DataFile.Basename,Display.RefreshRate,ExperimentVersion,goodbye.DEVICE,Group,Initials,RandomSeed,RuntimeCapabilities,RuntimeVersion,RuntimeVersionExpected,SessionDate,SessionStartDateTimeUtc,SessionTime,StudioVersion,Block,AnsAbility.DEVICE,AnsAbility.RESP,AnsAbility.RT,AnsAbility.RTTime,AnsHonest.DEVICE,AnsHonest.RESP,AnsHonest.RT,AnsHonest.RTTime,Attribute1,BeginWARN.DEVICE,BlockList,BlockList.Cycle,BlockList.Sample,colorinstruc.DEVICE,Instruct.DEVICE,LoadInstruct.DEVICE,NumberRecall1.ACC,NumberRecall1.CRESP,NumberRecall1.DEVICE,NumberRecall1.DurationError,NumberRecall1.OnsetDelay,NumberRecall1.OnsetTime,NumberRecall1.RESP,NumberRecall1.RT,NumberRecall1.RTTime,PANASnext.DEVICE,PANASnext.RT,PANASnext.RTTime,PracWarn.DEVICE,Procedure[Block],RMEStim1.ACC,RMEStim1.CRESP,RMEStim1.DEVICE,RMEStim1.DurationError,RMEStim1.OnsetDelay,RMEStim1.OnsetTime,RMEStim1.RESP,RMEStim1.RT,RMEStim1.RTTime,Running[Block],Slide2.ACC,Slide2.CRESP,Slide2.DEVICE,Slide2.DurationError,Slide2.OnsetDelay,Slide2.OnsetTime,Slide2.RESP,Slide2.RT,Slide2.RTTime,STAInext.DEVICE,STAInext.RT,STAInext.RTTime,Trial,colordiscrim,colordiscrim.Cycle,colordiscrim.Sample,colortask.ACC,colortask.CRESP,colortask.DEVICE,colortask.DurationError,colortask.OnsetDelay,colortask.OnsetTime,colortask.RESP,colortask.RT,colortask.RTTime,CorrectAnswer,correctanswernum,filename,NumberRecall.ACC,NumberRecall.CRESP,NumberRecall.DEVICE,NumberRecall.DurationError,NumberRecall.OnsetDelay,NumberRecall.OnsetTime,NumberRecall.RESP,NumberRecall.RT,NumberRecall.RTTime,Numbers,NumRecall,PANASQuestions,PANASQuestions.Cycle,PANASQuestions.Sample,PANASStim.DEVICE,PANASStim.RESP,PANASStim.RT,PANASStim.RTTime,Procedure[Trial],RMEStim.ACC,RMEStim.CRESP,RMEStim.DEVICE,RMEStim.DurationError,RMEStim.OnsetDelay,RMEStim.OnsetTime,RMEStim.RESP,RMEStim.RT,RMEStim.RTTime,RMETrialList,RMETrialList.Cycle,RMETrialList.Sample,Running[Trial],STAIQuestions,STAIQuestions.Cycle,STAIQuestions.Sample,STAIStim.DEVICE,STAIStim.RESP,STAIStim.RT,STAIStim.RTTime
RMEBPD Clinical Cog Load (2.13.15) Laptop version (2),3016,1,"<?xml version=""1.0""?>\n<Clock xmlns:dt=""urn:schemas-microsoft-com:datatypes""><Description dt:dt=""string"">E-Prime Primary Realtime Clock</Description><StartTime><Timestamp dt:dt=""int"">0</Timestamp><DateUtc dt:dt=""string"">2019-06-25T13:25:19Z</DateUtc></StartTime><FrequencyChanges><FrequencyChange><Frequency dt:dt=""r8"">10000000</Frequency><Timestamp dt:dt=""r8"">6267359678485</Timestamp><Current dt:dt=""r8"">0</Current><DateUtc dt:dt=""string"">2019-06-25T13:25:19Z</DateUtc></FrequencyChange></FrequencyChanges></Clock>\n",RMEBPD Clinical Cog Load (2.13.15) Laptop version (2)-3016-1,60.006,1.0.0.496,Keyboard,1,JS,1003219245,Full,3.0.3.60,3.0.3.60,6/25/2019,6/25/2019 13:25,9:25:19,3.0.3.43,1,,,,,,,,,?,,1,1,1,,,,,,,,,,,,,,,,,STAI,,,,,,,,,,BlockList,,,,,,,,,,Keyboard,3090,2937882,1,,,,,,,,,,,,,,,STAI01.bmp,,,,,,,,,,,,,,,,,,,STAIProc,,,,,,,,,,,,,STAIQuestions,1,1,1,Keyboard,2,14281,2952506
RMEBPD Clinical Cog Load (2.13.15) Laptop version (2),3016,1,"<?xml version=""1.0""?>\n<Clock xmlns:dt=""urn:schemas-microsoft-com:datatypes""><Description dt:dt=""string"">E-Prime Primary Realtime Clock</Description><StartTime><Timestamp dt:dt=""int"">0</Timestamp><DateUtc dt:dt=""string"">2019-06-25T13:25:19Z</DateUtc></StartTime><FrequencyChanges><FrequencyChange><Frequency dt:dt=""r8"">10000000</Frequency><Timestamp dt:dt=""r8"">6267359678485</Timestamp><Current dt:dt=""r8"">0</Current><DateUtc dt:dt=""string"">2019-06-25T13:25:19Z</DateUtc></FrequencyChange></FrequencyChanges></Clock>\n",RMEBPD Clinical Cog Load (2.13.15) Laptop version (2)-3016-1,60.006,1.0.0.496,Keyboard,1,JS,1003219245,Full,3.0.3.60,3.0.3.60,6/25/2019,6/25/2019 13:25,9:25:19,3.0.3.43,1,,,,,,,,,?,,1,1,1,,,,,,,,,,,,,,,,,STAI,,,,,,,,,,BlockList,,,,,,,,,,Keyboard,3090,2937882,2,,,,,,,,,,,,,,,STAI02.bmp,,,,,,,,,,,,,,,,,,,STAIProc,,,,,,,,,,,,,STAIQuestions,2,1,2,Keyboard,2,5064,2957706
RMEBPD Clinical Cog Load (2.13.15) Laptop version (2),3016,1,"<?xml version=""1.0""?>\n<Clock xmlns:dt=""urn:schemas-microsoft-com:datatypes""><Description dt:dt=""string"">E-Prime Primary Realtime Clock</Description><StartTime><Timestamp dt:dt=""int"">0</Timestamp><DateUtc dt:dt=""string"">2019-06-25T13:25:19Z</DateUtc></StartTime><FrequencyChanges><FrequencyChange><Frequency dt:dt=""r8"">10000000</Frequency><Timestamp dt:dt=""r8"">6267359678485</Timestamp><Current dt:dt=""r8"">0</Current><DateUtc dt:dt=""string"">2019-06-25T13:25:19Z</DateUtc></FrequencyChange></FrequencyChanges></Clock>\n",RMEBPD Clinical Cog Load (2.13.15) Laptop version (2)-3016-1,60.006,1.0.0.496,Keyboard,1,JS,1003219245,Full,3.0.3.60,3.0.3.60,6/25/2019,6/25/2019 13:25,9:25:19,3.0.3.43,1,,,,,,,,,?,,1,1,1,,,,,,,,,,,,,,,,,STAI,,,,,,,,,,BlockList,,,,,,,,,,Keyboard,3090,2937882,3,,,,,,,,,,,,,,,STAI03.bmp,,,,,,,,,,,,,,,,,,,STAIProc,,,,,,,,,,,,,STAIQuestions,3,1,3,Keyboard,2,2149,2960074
RMEBPD Clinical Cog Load (2.13.15) Laptop version (2),3016,1,"<?xml version=""1.0""?>\n<Clock xmlns:dt=""urn:schemas-microsoft-com:datatypes""><Description dt:dt=""string"">E-Prime Primary Realtime Clock</Description><StartTime><Timestamp dt:dt=""int"">0</Timestamp><DateUtc dt:dt=""string"">2019-06-25T13:25:19Z</DateUtc></StartTime><FrequencyChanges><FrequencyChange><Frequency dt:dt=""r8"">10000000</Frequency><Timestamp dt:dt=""r8"">6267359678485</Timestamp><Current dt:dt=""r8"">0</Current><DateUtc dt:dt=""string"">2019-06-25T13:25:19Z</DateUtc></FrequencyChange></FrequencyChanges></Clock>\n",RMEBPD Clinical Cog Load (2.13.15) Laptop version (2)-3016-1,60.006,1.0.0.496,Keyboard,1,JS,1003219245,Full,3.0.3.60,3.0.3.60,6/25/2019,6/25/2019 13:25,9:25:19,3.0.3.43,1,,,,,,,,,?,,1,1,1,,,,,,,,,,,,,,,,,STAI,,,,,,,,,,BlockList,,,,,,,,,,Keyboard,3090,2937882,4,,,,,,,,,,,,,,,STAI04.bmp,,,,,,,,,,,,,,,,,,,STAIProc,,,,,,,,,,,,,STAIQuestions,4,1,4,Keyboard,2,5058,2965266
RMEBPD Clinical Cog Load (2.13.15) Laptop version (2),3016,1,"<?xml version=""1.0""?>\n<Clock xmlns:dt=""urn:schemas-microsoft-com:datatypes""><Description dt:dt=""string"">E-Prime Primary Realtime Clock</Description><StartTime><Timestamp dt:dt=""int"">0</Timestamp><DateUtc dt:dt=""string"">2019-06-25T13:25:19Z</DateUtc></StartTime><FrequencyChanges><FrequencyChange><Frequency dt:dt=""r8"">10000000</Frequency><Timestamp dt:dt=""r8"">6267359678485</Timestamp><Current dt:dt=""r8"">0</Current><DateUtc dt:dt=""string"">2019-06-25T13:25:19Z</DateUtc></FrequencyChange></FrequencyChanges></Clock>\n",RMEBPD Clinical Cog Load (2.13.15) Laptop version (2)-3016-1,60.006,1.0.0.496,Keyboard,1,JS,1003219245,Full,3.0.3.60,3.0.3.60,6/25/2019,6/25/2019 13:25,9:25:19,3.0.3.43,1,,,,,,,,,?,,1,1,1,,,,,,,,,,,,,,,,,STAI,,,,,,,,,,BlockList,,,,,,,,,,Keyboard,3090,2937882,5,,,,,,,,,,,,,,,STAI05.bmp,,,,,,,,,,,,,,,,,,,STAIProc,,,,,,,,,,,,,STAIQuestions,5,1,5,Keyboard,2,2354,2967746
RMEBPD Clinical Cog Load (2.13.15) Laptop version (2),3016,1,"<?xml version=""1.0""?>\n<Clock xmlns:dt=""urn:schemas-microsoft-com:datatypes""><Description dt:dt=""string"">E-Prime Primary Realtime Clock</Description><StartTime><Timestamp dt:dt=""int"">0</Timestamp><DateUtc dt:dt=""string"">2019-06-25T13:25:19Z</DateUtc></StartTime><FrequencyChanges><FrequencyChange><Frequency dt:dt=""r8"">10000000</Frequency><Timestamp dt:dt=""r8"">6267359678485</Timestamp><Current dt:dt=""r8"">0</Current><DateUtc dt:dt=""string"">2019-06-25T13:25:19Z</DateUtc></FrequencyChange></FrequencyChanges></Clock>\n",RMEBPD Clinical Cog Load (2.13.15) Laptop version (2)-3016-1,60.006,1.0.0.496,Keyboard,1,JS,1003219245,Full,3.0.3.60,3.0.3.60,6/25/2019,6/25/2019 13:25,9:25:19,3.0.3.43,1,,,,,,,,,?,,1,1,1,,,,,,,,,,,,,,,,,STAI,,,,,,,,,,BlockList,,,,,,,,,,Keyboard,3090,2937882,6,,,,,,,,,,,,,,,STAI06.bmp,,,,,,,,,,,,,,,,,,,STAIProc,,,,,,,,,,,,,STAIQuestions,6,1,6,Keyboard,1,4143,2972018
RMEBPD Clinical Cog Load (2.13.15) Laptop version (2),3016,1,"<?xml version=""1.0""?>\n<Clock xmlns:dt=""urn:schemas-microsoft-com:datatypes""><Description dt:dt=""string"">E-Prime Primary Realtime Clock</Description><StartTime><Timestamp dt:dt=""int"">0</Timestamp><DateUtc dt:dt=""string"">2019-06-25T13:25:19Z</DateUtc></StartTime><FrequencyChanges><FrequencyChange><Frequency dt:dt=""r8"">10000000</Frequency><Timestamp dt:dt=""r8"">6267359678485</Timestamp><Current dt:dt=""r8"">0</Current><DateUtc dt:dt=""string"">2019-06-25T13:25:19Z</DateUtc></FrequencyChange></FrequencyChanges></Clock>\n",RMEBPD Clinical Cog Load (2.13.15) Laptop version (2)-3016-1,60.006,1.0.0.496,Keyboard,1,JS,1003219245,Full,3.0.3.60,3.0.3.60,6/25/2019,6/25/2019 13:25,9:25:19,3.0.3.43,1,,,,,,,,,?,,1,1,1,,,,,,,,,,,,,,,,,STAI,,,,,,,,,,BlockList,,,,,,,,,,Keyboard,3090,2937882,7,,,,,,,,,,,,,,,STAI07.bmp,,,,,,,,,,,,,,,,,,,STAIProc,,,,,,,,,,,,,STAIQuestions,7,1,7,Keyboard,2,4708,2976850
RMEBPD Clinical Cog Load (2.13.15) Laptop version (2),3016,1,"<?xml version=""1.0""?>\n<Clock xmlns:dt=""urn:schemas-microsoft-com:datatypes""><Description dt:dt=""string"">E-Prime Primary Realtime Clock</Description><StartTime><Timestamp dt:dt=""int"">0</Timestamp><DateUtc dt:dt=""string"">2019-06-25T13:25:19Z</DateUtc></StartTime><FrequencyChanges><FrequencyChange><Frequency dt:dt=""r8"">10000000</Frequency><Timestamp dt:dt=""r8"">6267359678485</Timestamp><Current dt:dt=""r8"">0</Current><DateUtc dt:dt=""string"">2019-06-25T13:25:19Z</DateUtc></FrequencyChange></FrequencyChanges></Clock>\n",RMEBPD Clinical Cog Load (2.13.15) Laptop version (2)-3016-1,60.006,1.0.0.496,Keyboard,1,JS,1003219245,Full,3.0.3.60,3.0.3.60,6/25/2019,6/25/2019 13:25,9:25:19,3.0.3.43,1,,,,,,,,,?,,1,1,1,,,,,,,,,,,,,,,,,STAI,,,,,,,,,,BlockList,,,,,,,,,,Keyboard,3090,2937882,8,,,,,,,,,,,,,,,STAI08.bmp,,,,,,,,,,,,,,,,,,,STAIProc,,,,,,,,,,,,,STAIQuestions,8,1,8,Keyboard,1,3050,2980042
RMEBPD Clinical Cog Load (2.13.15) Laptop version (2),3016,1,"<?xml version=""1.0""?>\n<Clock xmlns:dt=""urn:schemas-microsoft-com:datatypes""><Description dt:dt=""string"">E-Prime Primary Realtime Clock</Description><StartTime><Timestamp dt:dt=""int"">0</Timestamp><DateUtc dt:dt=""string"">2019-06-25T13:25:19Z</DateUtc></StartTime><FrequencyChanges><FrequencyChange><Frequency dt:dt=""r8"">10000000</Frequency><Timestamp dt:dt=""r8"">6267359678485</Timestamp><Current dt:dt=""r8"">0</Current><DateUtc dt:dt=""string"">2019-06-25T13:25:19Z</DateUtc></FrequencyChange></FrequencyChanges></Clock>\n",RMEBPD Clinical Cog Load (2.13.15) Laptop version (2)-3016-1,60.006,1.0.0.496,Keyboard,1,JS,1003219245,Full,3.0.3.60,3.0.3.60,6/25/2019,6/25/2019 13:25,9:25:19,3.0.3.43,1,,,,,,,,,?,,1,1,1,,,,,,,,,,,,,,,,,STAI,,,,,,,,,,BlockList,,,,,,,,,,Keyboard,3090,2937882,9,,,,,,,,,,,,,,,STAI09.bmp,,,,,,,,,,,,,,,,,,,STAIProc,,,,,,,,,,,,,STAIQuestions,9,1,9,Keyboard,2,1979,2982154
RMEBPD Clinical Cog Load (2.13.15) Laptop version (2),3016,1,"<?xml version=""1.0""?>\n<Clock xmlns:dt=""urn:schemas-microsoft-com:datatypes""><Description dt:dt=""string"">E-Prime Primary Realtime Clock</Description><StartTime><Timestamp dt:dt=""int"">0</Timestamp><DateUtc dt:dt=""string"">2019-06-25T13:25:19Z</DateUtc></StartTime><FrequencyChanges><FrequencyChange><Frequency dt:dt=""r8"">10000000</Frequency><Timestamp dt:dt=""r8"">6267359678485</Timestamp><Current dt:dt=""r8"">0</Current><DateUtc dt:dt=""string"">2019-06-25T13:25:19Z</DateUtc></FrequencyChange></FrequencyChanges></Clock>\n",RMEBPD Clinical Cog Load (2.13.15) Laptop version (2)-3016-1,60.006,1.0.0.496,Keyboard,1,JS,1003219245,Full,3.0.3.60,3.0.3.60,6/25/2019,6/25/2019 13:25,9:25:19,3.0.3.43,1,,,,,,,,,?,,1,1,1,,,,,,,,,,,,,,,,,STAI,,,,,,,,,,BlockList,,,,,,,,,,Keyboard,3090,2937882,10,,,,,,,,,,,,,,,STAI10.bmp,,,,,,,,,,,,,,,,,,,STAIProc,,,,,,,,,,,,,STAIQuestions,10,1,10,Keyboard,3,8110,2990402
RMEBPD Clinical Cog Load (2.13.15) Laptop version (2),3016,1,"<?xml version=""1.0""?>\n<Clock xmlns:dt=""urn:schemas-microsoft-com:datatypes""><Description dt:dt=""string"">E-Prime Primary Realtime Clock</Description><StartTime><Timestamp dt:dt=""int"">0</Timestamp><DateUtc dt:dt=""string"">2019-06-25T13:25:19Z</DateUtc></StartTime><FrequencyChanges><FrequencyChange><Frequency dt:dt=""r8"">10000000</Frequency><Timestamp dt:dt=""r8"">6267359678485</Timestamp><Current dt:dt=""r8"">0</Current><DateUtc dt:dt=""string"">2019-06-25T13:25:19Z</DateUtc></FrequencyChange></FrequencyChanges></Clock>\n",RMEBPD Clinical Cog Load (2.13.15) Laptop version (2)-3016-1,60.006,1.0.0.496,Keyboard,1,JS,1003219245,Full,3.0.3.60,3.0.3.60,6/25/2019,6/25/2019 13:25,9:25:19,3.0.3.43,1,,,,,,,,,?,,1,1,1,,,,,,,,,,,,,,,,,STAI,,,,,,,,,,BlockList,,,,,,,,,,Keyboard,3090,2937882,11,,,,,,,,,,,,,,,STAI11.bmp,,,,,,,,,,,,,,,,,,,STAIProc,,,,,,,,,,,,,STAIQuestions,11,1,11,Keyboard,2,3524,2994066
RMEBPD Clinical Cog Load (2.13.15) Laptop version (2),3016,1,"<?xml version=""1.0""?>\n<Clock xmlns:dt=""urn:schemas-microsoft-com:datatypes""><Description dt:dt=""string"">E-Prime Primary Realtime Clock</Description><StartTime><Timestamp dt:dt=""int"">0</Timestamp><DateUtc dt:dt=""string"">2019-06-25T13:25:19Z</DateUtc></StartTime><FrequencyChanges><FrequencyChange><Frequency dt:dt=""r8"">10000000</Frequency><Timestamp dt:dt=""r8"">6267359678485</Timestamp><Current dt:dt=""r8"">0</Current><DateUtc dt:dt=""string"">2019-06-25T13:25:19Z</DateUtc></FrequencyChange></FrequencyChanges></Clock>\n",RMEBPD Clinical Cog Load (2.13.15) Laptop version (2)-3016-1,60.006,1.0.0.496,Keyboard,1,JS,1003219245,Full,3.0.3.60,3.0.3.60,6/25/2019,6/25/2019 13:25,9:25:19,3.0.3.43,1,,,,,,,,,?,,1,1,1,,,,,,,,,,,,,,,,,STAI,,,,,,,,,,BlockList,,,,,,,,,,Keyboard,3090,2937882,12,,,,,,,,,,,,,,,STAI12.bmp,,,,,,,,,,,,,,,,,,,STAIProc,,,,,,,,,,,,,STAIQuestions,12,1,12,Keyboard,2,1618,2995810
RMEBPD Clinical Cog Load (2.13.15) Laptop version (2),3016,1,"<?xml version=""1.0""?>\n<Clock xmlns:dt=""urn:schemas-microsoft-com:datatypes""><Description dt:dt=""string"">E-Prime Primary Realtime Clock</Description><StartTime><Timestamp dt:dt=""int"">0</Timestamp><DateUtc dt:dt=""string"">2019-06-25T13:25:19Z</DateUtc></StartTime><FrequencyChanges><FrequencyChange><Frequency dt:dt=""r8"">10000000</Frequency><Timestamp dt:dt=""r8"">6267359678485</Timestamp><Current dt:dt=""r8"">0</Current><DateUtc dt:dt=""string"">2019-06-25T13:25:19Z</DateUtc></FrequencyChange></FrequencyChanges></Clock>\n",RMEBPD Clinical Cog Load (2.13.15) Laptop version (2)-3016-1,60.006,1.0.0.496,Keyboard,1,JS,1003219245,Full,3.0.3.60,3.0.3.60,6/25/2019,6/25/2019 13:25,9:25:19,3.0.3.43,1,,,,,,,,,?,,1,1,1,,,,,,,,,,,,,,,,,STAI,,,,,,,,,,BlockList,,,,,,,,,,Keyboard,3090,2937882,13,,,,,,,,,,,,,,,STAI13.bmp,,,,,,,,,,,,,,,,,,,STAIProc,,,,,,,,,,,,,STAIQuestions,13,1,13,Keyboard,2,1572,2997514
RMEBPD Clinical Cog Load (2.13.15) Laptop version (2),3016,1,"<?xml version=""1.0""?>\n<Clock xmlns:dt=""urn:schemas-microsoft-com:datatypes""><Description dt:dt=""string"">E-Prime Primary Realtime Clock</Description><StartTime><Timestamp dt:dt=""int"">0</Timestamp><DateUtc dt:dt=""string"">2019-06-25T13:25:19Z</DateUtc></StartTime><FrequencyChanges><FrequencyChange><Frequency dt:dt=""r8"">10000000</Frequency><Timestamp dt:dt=""r8"">6267359678485</Timestamp><Current dt:dt=""r8"">0</Current><DateUtc dt:dt=""string"">2019-06-25T13:25:19Z</DateUtc></FrequencyChange></FrequencyChanges></Clock>\n",RMEBPD Clinical Cog Load (2.13.15) Laptop version (2)-3016-1,60.006,1.0.0.496,Keyboard,1,JS,1003219245,Full,3.0.3.60,3.0.3.60,6/25/2019,6/25/2019 13:25,9:25:19,3.0.3.43,1,,,,,,,,,?,,1,1,1,,,,,,,,,,,,,,,,,STAI,,,,,,,,,,BlockList,,,,,,,,,,Keyboard,3090,2937882,14,,,,,,,,,,,,,,,STAI14.bmp,,,,,,,,,,,,,,,,,,,STAIProc,,,,,,,,,,,,,STAIQuestions,14,1,14,Keyboard,1,4344,3001986
RMEBPD Clinical Cog Load (2.13.15) Laptop version (2),3016,1,"<?xml version=""1.0""?>\n<Clock xmlns:dt=""urn:schemas-microsoft-com:datatypes""><Description dt:dt=""string"">E-Prime Primary Realtime Clock</Description><StartTime><Timestamp dt:dt=""int"">0</Timestamp><DateUtc dt:dt=""string"">2019-06-25T13:25:19Z</DateUtc></StartTime><FrequencyChanges><FrequencyChange><Frequency dt:dt=""r8"">10000000</Frequency><Timestamp dt:dt=""r8"">6267359678485</Timestamp><Current dt:dt=""r8"">0</Current><DateUtc dt:dt=""string"">2019-06-25T13:25:19Z</DateUtc></FrequencyChange></FrequencyChanges></Clock>\n",RMEBPD Clinical Cog Load (2.13.15) Laptop version (2)-3016-1,60.006,1.0.0.496,Keyboard,1,JS,1003219245,Full,3.0.3.60,3.0.3.60,6/25/2019,6/25/2019 13:25,9:25:19,3.0.3.43,1,,,,,,,,,?,,1,1,1,,,,,,,,,,,,,,,,,STAI,,,,,,,,,,BlockList,,,,,,,,,,Keyboard,3090,2937882,15,,,,,,,,,,,,,,,STAI15.bmp,,,,,,,,,,,,,,,,,,,STAIProc,,,,,,,,,,,,,STAIQuestions,15,1,15,Keyboard,2,4460,3006586
RMEBPD Clinical Cog Load (2.13.15) Laptop version (2),3016,1,"<?xml version=""1.0""?>\n<Clock xmlns:dt=""urn:schemas-microsoft-com:datatypes""><Description dt:dt=""string"">E-Prime Primary Realtime Clock</Description><StartTime><Timestamp dt:dt=""int"">0</Timestamp><DateUtc dt:dt=""string"">2019-06-25T13:25:19Z</DateUtc></StartTime><FrequencyChanges><FrequencyChange><Frequency dt:dt=""r8"">10000000</Frequency><Timestamp dt:dt=""r8"">6267359678485</Timestamp><Current dt:dt=""r8"">0</Current><DateUtc dt:dt=""string"">2019-06-25T13:25:19Z</DateUtc></FrequencyChange></FrequencyChanges></Clock>\n",RMEBPD Clinical Cog Load (2.13.15) Laptop version (2)-3016-1,60.006,1.0.0.496,Keyboard,1,JS,1003219245,Full,3.0.3.60,3.0.3.60,6/25/2019,6/25/2019 13:25,9:25:19,3.0.3.43,1,,,,,,,,,?,,1,1,1,,,,,,,,,,,,,,,,,STAI,,,,,,,,,,BlockList,,,,,,,,,,Keyboard,3090,2937882,16,,,,,,,,,,,,,,,STAI16.bmp,,,,,,,,,,,,,,,,,,,STAIProc,,,,,,,,,,,,,STAIQuestions,16,1,16,Keyboard,2,1524,3008250
RMEBPD Clinical Cog Load (2.13.15) Laptop version (2),3016,1,"<?xml version=""1.0""?>\n<Clock xmlns:dt=""urn:schemas-microsoft-com:datatypes""><Description dt:dt=""string"">E-Prime Primary Realtime Clock</Description><StartTime><Timestamp dt:dt=""int"">0</Timestamp><DateUtc dt:dt=""string"">2019-06-25T13:25:19Z</DateUtc></StartTime><FrequencyChanges><FrequencyChange><Frequency dt:dt=""r8"">10000000</Frequency><Timestamp dt:dt=""r8"">6267359678485</Timestamp><Current dt:dt=""r8"">0</Current><DateUtc dt:dt=""string"">2019-06-25T13:25:19Z</DateUtc></FrequencyChange></FrequencyChanges></Clock>\n",RMEBPD Clinical Cog Load (2.13.15) Laptop version (2)-3016-1,60.006,1.0.0.496,Keyboard,1,JS,1003219245,Full,3.0.3.60,3.0.3.60,6/25/2019,6/25/2019 13:25,9:25:19,3.0.3.43,1,,,,,,,,,?,,1,1,1,,,,,,,,,,,,,,,,,STAI,,,,,,,,,,BlockList,,,,,,,,,,Keyboard,3090,2937882,17,,,,,,,,,,,,,,,STAI17.bmp,,,,,,,,,,,,,,,,,,,STAIProc,,,,,,,,,,,,,STAIQuestions,17,1,17,Keyboard,2,3682,3012058
RMEBPD Clinical Cog Load (2.13.15) Laptop version (2),3016,1,"<?xml version=""1.0""?>\n<Clock xmlns:dt=""urn:schemas-microsoft-com:datatypes""><Description dt:dt=""string"">E-Prime Primary Realtime Clock</Description><StartTime><Timestamp dt:dt=""int"">0</Timestamp><DateUtc dt:dt=""string"">2019-06-25T13:25:19Z</DateUtc></StartTime><FrequencyChanges><FrequencyChange><Frequency dt:dt=""r8"">10000000</Frequency><Timestamp dt:dt=""r8"">6267359678485</Timestamp><Current dt:dt=""r8"">0</Current><DateUtc dt:dt=""string"">2019-06-25T13:25:19Z</DateUtc></FrequencyChange></FrequencyChanges></Clock>\n",RMEBPD Clinical Cog Load (2.13.15) Laptop version (2)-3016-1,60.006,1.0.0.496,Keyboard,1,JS,1003219245,Full,3.0.3.60,3.0.3.60,6/25/2019,6/25/2019 13:25,9:25:19,3.0.3.43,1,,,,,,,,,?,,1,1,1,,,,,,,,,,,,,,,,,STAI,,,,,,,,,,BlockList,,,,,,,,,,Keyboard,3090,2937882,18,,,,,,,,,,,,,,,STAI18.bmp,,,,,,,,,,,,,,,,,,,STAIProc,,,,,,,,,,,,,STAIQuestions,18,1,18,Keyboard,1,2794,3014986
RMEBPD Clinical Cog Load (2.13.15) Laptop version (2),3016,1,"<?xml version=""1.0""?>\n<Clock xmlns:dt=""urn:schemas-microsoft-com:datatypes""><Description dt:dt=""string"">E-Prime Primary Realtime Clock</Description><StartTime><Timestamp dt:dt=""int"">0</Timestamp><DateUtc dt:dt=""string"">2019-06-25T13:25:19Z</DateUtc></StartTime><FrequencyChanges><FrequencyChange><Frequency dt:dt=""r8"">10000000</Frequency><Timestamp dt:dt=""r8"">6267359678485</Timestamp><Current dt:dt=""r8"">0</Current><DateUtc dt:dt=""string"">2019-06-25T13:25:19Z</DateUtc></FrequencyChange></FrequencyChanges></Clock>\n",RMEBPD Clinical Cog Load (2.13.15) Laptop version (2)-3016-1,60.006,1.0.0.496,Keyboard,1,JS,1003219245,Full,3.0.3.60,3.0.3.60,6/25/2019,6/25/2019 13:25,9:25:19,3.0.3.43,1,,,,,,,,,?,,1,1,1,,,,,,,,,,,,,,,,,STAI,,,,,,,,,,BlockList,,,,,,,,,,Keyboard,3090,2937882,19,,,,,,,,,,,,,,,STAI19.bmp,,,,,,,,,,,,,,,,,,,STAIProc,,,,,,,,,,,,,STAIQuestions,19,1,19,Keyboard,1,3317,3018426
RMEBPD Clinical Cog Load (2.13.15) Laptop version (2),3016,1,"<?xml version=""1.0""?>\n<Clock xmlns:dt=""urn:schemas-microsoft-com:datatypes""><Description dt:dt=""string"">E-Prime Primary Realtime Clock</Description><StartTime><Timestamp dt:dt=""int"">0</Timestamp><DateUtc dt:dt=""string"">2019-06-25T13:25:19Z</DateUtc></StartTime><FrequencyChanges><FrequencyChange><Frequency dt:dt=""r8"">10000000</Frequency><Timestamp dt:dt=""r8"">6267359678485</Timestamp><Current dt:dt=""r8"">0</Current><DateUtc dt:dt=""string"">2019-06-25T13:25:19Z</DateUtc></FrequencyChange></FrequencyChanges></Clock>\n",RMEBPD Clinical Cog Load (2.13.15) Laptop version (2)-3016-1,60.006,1.0.0.496,Keyboard,1,JS,1003219245,Full,3.0.3.60,3.0.3.60,6/25/2019,6/25/2019 13:25,9:25:19,3.0.3.43,1,,,,,,,,,?,,1,1,1,,,,,,,,,,,,,,,,,STAI,,,,,,,,,,BlockList,,,,,,,,,,Keyboard,3090,2937882,20,,,,,,,,,,,,,,,STAI20.bmp,,,,,,,,,,,,,,,,,,,STAIProc,,,,,,,,,,,,,STAIQuestions,20,1,20,Keyboard,2,2339,3021098
RMEBPD Clinical Cog Load (2.13.15) Laptop version (2),3016,1,"<?xml version=""1.0""?>\n<Clock xmlns:dt=""urn:schemas-microsoft-com:datatypes""><Description dt:dt=""string"">E-Prime Primary Realtime Clock</Description><StartTime><Timestamp dt:dt=""int"">0</Timestamp><DateUtc dt:dt=""string"">2019-06-25T13:25:19Z</DateUtc></StartTime><FrequencyChanges><FrequencyChange><Frequency dt:dt=""r8"">10000000</Frequency><Timestamp dt:dt=""r8"">6267359678485</Timestamp><Current dt:dt=""r8"">0</Current><DateUtc dt:dt=""string"">2019-06-25T13:25:19Z</DateUtc></FrequencyChange></FrequencyChanges></Clock>\n",RMEBPD Clinical Cog Load (2.13.15) Laptop version (2)-3016-1,60.006,1.0.0.496,Keyboard,1,JS,1003219245,Full,3.0.3.60,3.0.3.60,6/25/2019,6/25/2019 13:25,9:25:19,3.0.3.43,2,,,,,,,,,?,,2,1,2,,,,,,,,,,,,,Keyboard,1828,3022954,,PANAS,,,,,,,,,,BlockList,,,,,,,,,,,,,1,,,,,,,,,,,,,,,PANAS01.bmp,,,,,,,,,,,,1,1,1,Keyboard,2,15126,3038218,PANASProc,,,,,,,,,,,,,PANASQuestions,,,,,,,
RMEBPD Clinical Cog Load (2.13.15) Laptop version (2),3016,1,"<?xml version=""1.0""?>\n<Clock xmlns:dt=""urn:schemas-microsoft-com:datatypes""><Description dt:dt=""string"">E-Prime Primary Realtime Clock</Description><StartTime><Timestamp dt:dt=""int"">0</Timestamp><DateUtc dt:dt=""string"">2019-06-25T13:25:19Z</DateUtc></StartTime><FrequencyChanges><FrequencyChange><Frequency dt:dt=""r8"">10000000</Frequency><Timestamp dt:dt=""r8"">6267359678485</Timestamp><Current dt:dt=""r8"">0</Current><DateUtc dt:dt=""string"">2019-06-25T13:25:19Z</DateUtc></FrequencyChange></FrequencyChanges></Clock>\n",RMEBPD Clinical Cog Load (2.13.15) Laptop version (2)-3016-1,60.006,1.0.0.496,Keyboard,1,JS,1003219245,Full,3.0.3.60,3.0.3.60,6/25/2019,6/25/2019 13:25,9:25:19,3.0.3.43,2,,,,,,,,,?,,2,1,2,,,,,,,,,,,,,Keyboard,1828,3022954,,PANAS,,,,,,,,,,BlockList,,,,,,,,,,,,,2,,,,,,,,,,,,,,,PANAS02.bmp,,,,,,,,,,,,2,1,2,Keyboard,2,3019,3041362,PANASProc,,,,,,,,,,,,,PANASQuestions,,,,,,,
RMEBPD Clinical Cog Load (2.13.15) Laptop version (2),3016,1,"<?xml version=""1.0""?>\n<Clock xmlns:dt=""urn:schemas-microsoft-com:datatypes""><Description dt:dt=""string"">E-Prime Primary Realtime Clock</Description><StartTime><Timestamp dt:dt=""int"">0</Timestamp><DateUtc dt:dt=""string"">2019-06-25T13:25:19Z</DateUtc></StartTime><FrequencyChanges><FrequencyChange><Frequency dt:dt=""r8"">10000000</Frequency><Timestamp dt:dt=""r8"">6267359678485</Timestamp><Current dt:dt=""r8"">0</Current><DateUtc dt:dt=""string"">2019-06-25T13:25:19Z</DateUtc></FrequencyChange></FrequencyChanges></Clock>\n",RMEBPD Clinical Cog Load (2.13.15) Laptop version (2)-3016-1,60.006,1.0.0.496,Keyboard,1,JS,1003219245,Full,3.0.3.60,3.0.3.60,6/25/2019,6/25/2019 13:25,9:25:19,3.0.3.43,2,,,,,,,,,?,,2,1,2,,,,,,,,,,,,,Keyboard,1828,3022954,,PANAS,,,,,,,,,,BlockList,,,,,,,,,,,,,3,,,,,,,,,,,,,,,PANAS03.bmp,,,,,,,,,,,,3,1,3,Keyboard,1,1989,3043482,PANASProc,,,,,,,,,,,,,PANASQuestions,,,,,,,
RMEBPD Clinical Cog Load (2.13.15) Laptop version (2),3016,1,"<?xml version=""1.0""?>\n<Clock xmlns:dt=""urn:schemas-microsoft-com:datatypes""><Description dt:dt=""string"">E-Prime Primary Realtime Clock</Description><StartTime><Timestamp dt:dt=""int"">0</Timestamp><DateUtc dt:dt=""string"">2019-06-25T13:25:19Z</DateUtc></StartTime><FrequencyChanges><FrequencyChange><Frequency dt:dt=""r8"">10000000</Frequency><Timestamp dt:dt=""r8"">6267359678485</Timestamp><Current dt:dt=""r8"">0</Current><DateUtc dt:dt=""string"">2019-06-25T13:25:19Z</DateUtc></FrequencyChange></FrequencyChanges></Clock>\n",RMEBPD Clinical Cog Load (2.13.15) Laptop version (2)-3016-1,60.006,1.0.0.496,Keyboard,1,JS,1003219245,Full,3.0.3.60,3.0.3.60,6/25/2019,6/25/2019 13:25,9:25:19,3.0.3.43,2,,,,,,,,,?,,2,1,2,,,,,,,,,,,,,Keyboard,1828,3022954,,PANAS,,,,,,,,,,BlockList,,,,,,,,,,,,,4,,,,,,,,,,,,,,,PANAS04.bmp,,,,,,,,,,,,4,1,4,Keyboard,1,3817,3047426,PANASProc,,,,,,,,,,,,,PANASQuestions,,,,,,,
RMEBPD Clinical Cog Load (2.13.15) Laptop version (2),3016,1,"<?xml version=""1.0""?>\n<Clock xmlns:dt=""urn:schemas-microsoft-com:datatypes""><Description dt:dt=""string"">E-Prime Primary Realtime Clock</Description><StartTime><Timestamp dt:dt=""int"">0</Timestamp><DateUtc dt:dt=""string"">2019-06-25T13:25:19Z</DateUtc></StartTime><FrequencyChanges><FrequencyChange><Frequency dt:dt=""r8"">10000000</Frequency><Timestamp dt:dt=""r8"">6267359678485</Timestamp><Current dt:dt=""r8"">0</Current><DateUtc dt:dt=""string"">2019-06-25T13:25:19Z</DateUtc></FrequencyChange></FrequencyChanges></Clock>\n",RMEBPD Clinical Cog Load (2.13.15) Laptop version (2)-3016-1,60.006,1.0.0.496,Keyboard,1,JS,1003219245,Full,3.0.3.60,3.0.3.60,6/25/2019,6/25/2019 13:25,9:25:19,3.0.3.43,2,,,,,,,,,?,,2,1,2,,,,,,,,,,,,,Keyboard,1828,3022954,,PANAS,,,,,,,,,,BlockList,,,,,,,,,,,,,5,,,,,,,,,,,,,,,PANAS05.bmp,,,,,,,,,,,,5,1,5,Keyboard,2,3043,3050602,PANASProc,,,,,,,,,,,,,PANASQuestions,,,,,,,
RMEBPD Clinical Cog Load (2.13.15) Laptop version (2),3016,1,"<?xml version=""1.0""?>\n<Clock xmlns:dt=""urn:schemas-microsoft-com:datatypes""><Description dt:dt=""string"">E-Prime Primary Realtime Clock</Description><StartTime><Timestamp dt:dt=""int"">0</Timestamp><DateUtc dt:dt=""string"">2019-06-25T13:25:19Z</DateUtc></StartTime><FrequencyChanges><FrequencyChange><Frequency dt:dt=""r8"">10000000</Frequency><Timestamp dt:dt=""r8"">6267359678485</Timestamp><Current dt:dt=""r8"">0</Current><DateUtc dt:dt=""string"">2019-06-25T13:25:19Z</DateUtc></FrequencyChange></FrequencyChanges></Clock>\n",RMEBPD Clinical Cog Load (2.13.15) Laptop version (2)-3016-1,60.006,1.0.0.496,Keyboard,1,JS,1003219245,Full,3.0.3.60,3.0.3.60,6/25/2019,6/25/2019 13:25,9:25:19,3.0.3.43,2,,,,,,,,,?,,2,1,2,,,,,,,,,,,,,Keyboard,1828,3022954,,PANAS,,,,,,,,,,BlockList,,,,,,,,,,,,,6,,,,,,,,,,,,,,,PANAS06.bmp,,,,,,,,,,,,6,1,6,Keyboard,2,3452,3054178,PANASProc,,,,,,,,,,,,,PANASQuestions,,,,,,,
RMEBPD Clinical Cog Load (2.13.15) Laptop version (2),3016,1,"<?xml version=""1.0""?>\n<Clock xmlns:dt=""urn:schemas-microsoft-com:datatypes""><Description dt:dt=""string"">E-Prime Primary Realtime Clock</Description><StartTime><Timestamp dt:dt=""int"">0</Timestamp><DateUtc dt:dt=""string"">2019-06-25T13:25:19Z</DateUtc></StartTime><FrequencyChanges><FrequencyChange><Frequency dt:dt=""r8"">10000000</Frequency><Timestamp dt:dt=""r8"">6267359678485</Timestamp><Current dt:dt=""r8"">0</Current><DateUtc dt:dt=""string"">2019-06-25T13:25:19Z</DateUtc></FrequencyChange></FrequencyChanges></Clock>\n",RMEBPD Clinical Cog Load (2.13.15) Laptop version (2)-3016-1,60.006,1.0.0.496,Keyboard,1,JS,1003219245,Full,3.0.3.60,3.0.3.60,6/25/2019,6/25/2019 13:25,9:25:19,3.0.3.43,2,,,,,,,,,?,,2,1,2,,,,,,,,,,,,,Keyboard,1828,3022954,,PANAS,,,,,,,,,,BlockList,,,,,,,,,,,,,7,,,,,,,,,,,,,,,PANAS07.bmp,,,,,,,,,,,,7,1,7,Keyboard,1,3525,3057818,PANASProc,,,,,,,,,,,,,PANASQuestions,,,,,,,
RMEBPD Clinical Cog Load (2.13.15) Laptop version (2),3016,1,"<?xml version=""1.0""?>\n<Clock xmlns:dt=""urn:schemas-microsoft-com:datatypes""><Description dt:dt=""string"">E-Prime Primary Realtime Clock</Description><StartTime><Timestamp dt:dt=""int"">0</Timestamp><DateUtc dt:dt=""string"">2019-06-25T13:25:19Z</DateUtc></StartTime><FrequencyChanges><FrequencyChange><Frequency dt:dt=""r8"">10000000</Frequency><Timestamp dt:dt=""r8"">6267359678485</Timestamp><Current dt:dt=""r8"">0</Current><DateUtc dt:dt=""string"">2019-06-25T13:25:19Z</DateUtc></FrequencyChange></FrequencyChanges></Clock>\n",RMEBPD Clinical Cog Load (2.13.15) Laptop version (2)-3016-1,60.006,1.0.0.496,Keyboard,1,JS,1003219245,Full,3.0.3.60,3.0.3.60,6/25/2019,6/25/2019 13:25,9:25:19,3.0.3.43,2,,,,,,,,,?,,2,1,2,,,,,,,,,,,,,Keyboard,1828,3022954,,PANAS,,,,,,,,,,BlockList,,,,,,,,,,,,,8,,,,,,,,,,,,,,,PANAS08.bmp,,,,,,,,,,,,8,1,8,Keyboard,2,1611,3059554,PANASProc,,,,,,,,,,,,,PANASQuestions,,,,,,,
RMEBPD Clinical Cog Load (2.13.15) Laptop version (2),3016,1,"<?xml version=""1.0""?>\n<Clock xmlns:dt=""urn:schemas-microsoft-com:datatypes""><Description dt:dt=""string"">E-Prime Primary Realtime Clock</Description><StartTime><Timestamp dt:dt=""int"">0</Timestamp><DateUtc dt:dt=""string"">2019-06-25T13:25:19Z</DateUtc></StartTime><FrequencyChanges><FrequencyChange><Frequency dt:dt=""r8"">10000000</Frequency><Timestamp dt:dt=""r8"">6267359678485</Timestamp><Current dt:dt=""r8"">0</Current><DateUtc dt:dt=""string"">2019-06-25T13:25:19Z</DateUtc></FrequencyChange></FrequencyChanges></Clock>\n",RMEBPD Clinical Cog Load (2.13.15) Laptop version (2)-3016-1,60.006,1.0.0.496,Keyboard,1,JS,1003219245,Full,3.0.3.60,3.0.3.60,6/25/2019,6/25/2019 13:25,9:25:19,3.0.3.43,2,,,,,,,,,?,,2,1,2,,,,,,,,,,,,,Keyboard,1828,3022954,,PANAS,,,,,,,,,,BlockList,,,,,,,,,,,,,9,,,,,,,,,,,,,,,PANAS09.bmp,,,,,,,,,,,,9,1,9,Keyboard,1,2230,3061906,PANASProc,,,,,,,,,,,,,PANASQuestions,,,,,,,
RMEBPD Clinical Cog Load (2.13.15) Laptop version (2),3016,1,"<?xml version=""1.0""?>\n<Clock xmlns:dt=""urn:schemas-microsoft-com:datatypes""><Description dt:dt=""string"">E-Prime Primary Realtime Clock</Description><StartTime><Timestamp dt:dt=""int"">0</Timestamp><DateUtc dt:dt=""string"">2019-06-25T13:25:19Z</DateUtc></StartTime><FrequencyChanges><FrequencyChange><Frequency dt:dt=""r8"">10000000</Frequency><Timestamp dt:dt=""r8"">6267359678485</Timestamp><Current dt:dt=""r8"">0</Current><DateUtc dt:dt=""string"">2019-06-25T13:25:19Z</DateUtc></FrequencyChange></FrequencyChanges></Clock>\n",RMEBPD Clinical Cog Load (2.13.15) Laptop version (2)-3016-1,60.006,1.0.0.496,Keyboard,1,JS,1003219245,Full,3.0.3.60,3.0.3.60,6/25/2019,6/25/2019 13:25,9:25:19,3.0.3.43,2,,,,,,,,,?,,2,1,2,,,,,,,,,,,,,Keyboard,1828,3022954,,PANAS,,,,,,,,,,BlockList,,,,,,,,,,,,,10,,,,,,,,,,,,,,,PANAS10.bmp,,,,,,,,,,,,10,1,10,Keyboard,1,3407,3065450,PANASProc,,,,,,,,,,,,,PANASQuestions,,,,,,,
RMEBPD Clinical Cog Load (2.13.15) Laptop version (2),3016,1,"<?xml version=""1.0""?>\n<Clock xmlns:dt=""urn:schemas-microsoft-com:datatypes""><Description dt:dt=""string"">E-Prime Primary Realtime Clock</Description><StartTime><Timestamp dt:dt=""int"">0</Timestamp><DateUtc dt:dt=""string"">2019-06-25T13:25:19Z</DateUtc></StartTime><FrequencyChanges><FrequencyChange><Frequency dt:dt=""r8"">10000000</Frequency><Timestamp dt:dt=""r8"">6267359678485</Timestamp><Current dt:dt=""r8"">0</Current><DateUtc dt:dt=""string"">2019-06-25T13:25:19Z</DateUtc></FrequencyChange></FrequencyChanges></Clock>\n",RMEBPD Clinical Cog Load (2.13.15) Laptop version (2)-3016-1,60.006,1.0.0.496,Keyboard,1,JS,1003219245,Full,3.0.3.60,3.0.3.60,6/25/2019,6/25/2019 13:25,9:25:19,3.0.3.43,2,,,,,,,,,?,,2,1,2,,,,,,,,,,,,,Keyboard,1828,3022954,,PANAS,,,,,,,,,,BlockList,,,,,,,,,,,,,11,,,,,,,,,,,,,,,PANAS11.bmp,,,,,,,,,,,,11,1,11,Keyboard,1,2194,3067770,PANASProc,,,,,,,,,,,,,PANASQuestions,,,,,,,
RMEBPD Clinical Cog Load (2.13.15) Laptop version (2),3016,1,"<?xml version=""1.0""?>\n<Clock xmlns:dt=""urn:schemas-microsoft-com:datatypes""><Description dt:dt=""string"">E-Prime Primary Realtime Clock</Description><StartTime><Timestamp dt:dt=""int"">0</Timestamp><DateUtc dt:dt=""string"">2019-06-25T13:25:19Z</DateUtc></StartTime><FrequencyChanges><FrequencyChange><Frequency dt:dt=""r8"">10000000</Frequency><Timestamp dt:dt=""r8"">6267359678485</Timestamp><Current dt:dt=""r8"">0</Current><DateUtc dt:dt=""string"">2019-06-25T13:25:19Z</DateUtc></FrequencyChange></FrequencyChanges></Clock>\n",RMEBPD Clinical Cog Load (2.13.15) Laptop version (2)-3016-1,60.006,1.0.0.496,Keyboard,1,JS,1003219245,Full,3.0.3.60,3.0.3.60,6/25/2019,6/25/2019 13:25,9:25:19,3.0.3.43,2,,,,,,,,,?,,2,1,2,,,,,,,,,,,,,Keyboard,1828,3022954,,PANAS,,,,,,,,,,BlockList,,,,,,,,,,,,,12,,,,,,,,,,,,,,,PANAS12.bmp,,,,,,,,,,,,12,1,12,Keyboard,1,1621,3069514,PANASProc,,,,,,,,,,,,,PANASQuestions,,,,,,,
RMEBPD Clinical Cog Load (2.13.15) Laptop version (2),3016,1,"<?xml version=""1.0""?>\n<Clock xmlns:dt=""urn:schemas-microsoft-com:datatypes""><Description dt:dt=""string"">E-Prime Primary Realtime Clock</Description><StartTime><Timestamp dt:dt=""int"">0</Timestamp><DateUtc dt:dt=""string"">2019-06-25T13:25:19Z</DateUtc></StartTime><FrequencyChanges><FrequencyChange><Frequency dt:dt=""r8"">10000000</Frequency><Timestamp dt:dt=""r8"">6267359678485</Timestamp><Current dt:dt=""r8"">0</Current><DateUtc dt:dt=""string"">2019-06-25T13:25:19Z</DateUtc></FrequencyChange></FrequencyChanges></Clock>\n",RMEBPD Clinical Cog Load (2.13.15) Laptop version (2)-3016-1,60.006,1.0.0.496,Keyboard,1,JS,1003219245,Full,3.0.3.60,3.0.3.60,6/25/2019,6/25/2019 13:25,9:25:19,3.0.3.43,2,,,,,,,,,?,,2,1,2,,,,,,,,,,,,,Keyboard,1828,3022954,,PANAS,,,,,,,,,,BlockList,,,,,,,,,,,,,13,,,,,,,,,,,,,,,PANAS13.bmp,,,,,,,,,,,,13,1,13,Keyboard,3,3311,3072954,PANASProc,,,,,,,,,,,,,PANASQuestions,,,,,,,
RMEBPD Clinical Cog Load (2.13.15) Laptop version (2),3016,1,"<?xml version=""1.0""?>\n<Clock xmlns:dt=""urn:schemas-microsoft-com:datatypes""><Description dt:dt=""string"">E-Prime Primary Realtime Clock</Description><StartTime><Timestamp dt:dt=""int"">0</Timestamp><DateUtc dt:dt=""string"">2019-06-25T13:25:19Z</DateUtc></StartTime><FrequencyChanges><FrequencyChange><Frequency dt:dt=""r8"">10000000</Frequency><Timestamp dt:dt=""r8"">6267359678485</Timestamp><Current dt:dt=""r8"">0</Current><DateUtc dt:dt=""string"">2019-06-25T13:25:19Z</DateUtc></FrequencyChange></FrequencyChanges></Clock>\n",RMEBPD Clinical Cog Load (2.13.15) Laptop version (2)-3016-1,60.006,1.0.0.496,Keyboard,1,JS,1003219245,Full,3.0.3.60,3.0.3.60,6/25/2019,6/25/2019 13:25,9:25:19,3.0.3.43,2,,,,,,,,,?,,2,1,2,,,,,,,,,,,,,Keyboard,1828,3022954,,PANAS,,,,,,,,,,BlockList,,,,,,,,,,,,,14,,,,,,,,,,,,,,,PANAS14.bmp,,,,,,,,,,,,14,1,14,Keyboard,2,3317,3076410,PANASProc,,,,,,,,,,,,,PANASQuestions,,,,,,,
RMEBPD Clinical Cog Load (2.13.15) Laptop version (2),3016,1,"<?xml version=""1.0""?>\n<Clock xmlns:dt=""urn:schemas-microsoft-com:datatypes""><Description dt:dt=""string"">E-Prime Primary Realtime Clock</Description><StartTime><Timestamp dt:dt=""int"">0</Timestamp><DateUtc dt:dt=""string"">2019-06-25T13:25:19Z</DateUtc></StartTime><FrequencyChanges><FrequencyChange><Frequency dt:dt=""r8"">10000000</Frequency><Timestamp dt:dt=""r8"">6267359678485</Timestamp><Current dt:dt=""r8"">0</Current><DateUtc dt:dt=""string"">2019-06-25T13:25:19Z</DateUtc></FrequencyChange></FrequencyChanges></Clock>\n",RMEBPD Clinical Cog Load (2.13.15) Laptop version (2)-3016-1,60.006,1.0.0.496,Keyboard,1,JS,1003219245,Full,3.0.3.60,3.0.3.60,6/25/2019,6/25/2019 13:25,9:25:19,3.0.3.43,2,,,,,,,,,?,,2,1,2,,,,,,,,,,,,,Keyboard,1828,3022954,,PANAS,,,,,,,,,,BlockList,,,,,,,,,,,,,15,,,,,,,,,,,,,,,PANAS15.bmp,,,,,,,,,,,,15,1,15,Keyboard,3,1980,3078506,PANASProc,,,,,,,,,,,,,PANASQuestions,,,,,,,
RMEBPD Clinical Cog Load (2.13.15) Laptop version (2),3016,1,"<?xml version=""1.0""?>\n<Clock xmlns:dt=""urn:schemas-microsoft-com:datatypes""><Description dt:dt=""string"">E-Prime Primary Realtime Clock</Description><StartTime><Timestamp dt:dt=""int"">0</Timestamp><DateUtc dt:dt=""string"">2019-06-25T13:25:19Z</DateUtc></StartTime><FrequencyChanges><FrequencyChange><Frequency dt:dt=""r8"">10000000</Frequency><Timestamp dt:dt=""r8"">6267359678485</Timestamp><Current dt:dt=""r8"">0</Current><DateUtc dt:dt=""string"">2019-06-25T13:25:19Z</DateUtc></FrequencyChange></FrequencyChanges></Clock>\n",RMEBPD Clinical Cog Load (2.13.15) Laptop version (2)-3016-1,60.006,1.0.0.496,Keyboard,1,JS,1003219245,Full,3.0.3.60,3.0.3.60,6/25/2019,6/25/2019 13:25,9:25:19,3.0.3.43,2,,,,,,,,,?,,2,1,2,,,,,,,,,,,,,Keyboard,1828,3022954,,PANAS,,,,,,,,,,BlockList,,,,,,,,,,,,,16,,,,,,,,,,,,,,,PANAS16.bmp,,,,,,,,,,,,16,1,16,Keyboard,2,3016,3081642,PANASProc,,,,,,,,,,,,,PANASQuestions,,,,,,,
RMEBPD Clinical Cog Load (2.13.15) Laptop version (2),3016,1,"<?xml version=""1.0""?>\n<Clock xmlns:dt=""urn:schemas-microsoft-com:datatypes""><Description dt:dt=""string"">E-Prime Primary Realtime Clock</Description><StartTime><Timestamp dt:dt=""int"">0</Timestamp><DateUtc dt:dt=""string"">2019-06-25T13:25:19Z</DateUtc></StartTime><FrequencyChanges><FrequencyChange><Frequency dt:dt=""r8"">10000000</Frequency><Timestamp dt:dt=""r8"">6267359678485</Timestamp><Current dt:dt=""r8"">0</Current><DateUtc dt:dt=""string"">2019-06-25T13:25:19Z</DateUtc></FrequencyChange></FrequencyChanges></Clock>\n",RMEBPD Clinical Cog Load (2.13.15) Laptop version (2)-3016-1,60.006,1.0.0.496,Keyboard,1,JS,1003219245,Full,3.0.3.60,3.0.3.60,6/25/2019,6/25/2019 13:25,9:25:19,3.0.3.43,2,,,,,,,,,?,,2,1,2,,,,,,,,,,,,,Keyboard,1828,3022954,,PANAS,,,,,,,,,,BlockList,,,,,,,,,,,,,17,,,,,,,,,,,,,,,PANAS17.bmp,,,,,,,,,,,,17,1,17,Keyboard,4,3930,3085690,PANASProc,,,,,,,,,,,,,PANASQuestions,,,,,,,
RMEBPD Clinical Cog Load (2.13.15) Laptop version (2),3016,1,"<?xml version=""1.0""?>\n<Clock xmlns:dt=""urn:schemas-microsoft-com:datatypes""><Description dt:dt=""string"">E-Prime Primary Realtime Clock</Description><StartTime><Timestamp dt:dt=""int"">0</Timestamp><DateUtc dt:dt=""string"">2019-06-25T13:25:19Z</DateUtc></StartTime><FrequencyChanges><FrequencyChange><Frequency dt:dt=""r8"">10000000</Frequency><Timestamp dt:dt=""r8"">6267359678485</Timestamp><Current dt:dt=""r8"">0</Current><DateUtc dt:dt=""string"">2019-06-25T13:25:19Z</DateUtc></FrequencyChange></FrequencyChanges></Clock>\n",RMEBPD Clinical Cog Load (2.13.15) Laptop version (2)-3016-1,60.006,1.0.0.496,Keyboard,1,JS,1003219245,Full,3.0.3.60,3.0.3.60,6/25/2019,6/25/2019 13:25,9:25:19,3.0.3.43,2,,,,,,,,,?,,2,1,2,,,,,,,,,,,,,Keyboard,1828,3022954,,PANAS,,,,,,,,,,BlockList,,,,,,,,,,,,,18,,,,,,,,,,,,,,,PANAS18.bmp,,,,,,,,,,,,18,1,18,Keyboard,1,2488,3088298,PANASProc,,,,,,,,,,,,,PANASQuestions,,,,,,,
RMEBPD Clinical Cog Load (2.13.15) Laptop version (2),3016,1,"<?xml version=""1.0""?>\n<Clock xmlns:dt=""urn:schemas-microsoft-com:datatypes""><Description dt:dt=""string"">E-Prime Primary Realtime Clock</Description><StartTime><Timestamp dt:dt=""int"">0</Timestamp><DateUtc dt:dt=""string"">2019-06-25T13:25:19Z</DateUtc></StartTime><FrequencyChanges><FrequencyChange><Frequency dt:dt=""r8"">10000000</Frequency><Timestamp dt:dt=""r8"">6267359678485</Timestamp><Current dt:dt=""r8"">0</Current><DateUtc dt:dt=""string"">2019-06-25T13:25:19Z</DateUtc></FrequencyChange></FrequencyChanges></Clock>\n",RMEBPD Clinical Cog Load (2.13.15) Laptop version (2)-3016-1,60.006,1.0.0.496,Keyboard,1,JS,1003219245,Full,3.0.3.60,3.0.3.60,6/25/2019,6/25/2019 13:25,9:25:19,3.0.3.43,2,,,,,,,,,?,,2,1,2,,,,,,,,,,,,,Keyboard,1828,3022954,,PANAS,,,,,,,,,,BlockList,,,,,,,,,,,,,19,,,,,,,,,,,,,,,PANAS19.bmp,,,,,,,,,,,,19,1,19,Keyboard,2,2176,3090602,PANASProc,,,,,,,,,,,,,PANASQuestions,,,,,,,
RMEBPD Clinical Cog Load (2.13.15) Laptop version (2),3016,1,"<?xml version=""1.0""?>\n<Clock xmlns:dt=""urn:schemas-microsoft-com:datatypes""><Description dt:dt=""string"">E-Prime Primary Realtime Clock</Description><StartTime><Timestamp dt:dt=""int"">0</Timestamp><DateUtc dt:dt=""string"">2019-06-25T13:25:19Z</DateUtc></StartTime><FrequencyChanges><FrequencyChange><Frequency dt:dt=""r8"">10000000</Frequency><Timestamp dt:dt=""r8"">6267359678485</Timestamp><Current dt:dt=""r8"">0</Current><DateUtc dt:dt=""string"">2019-06-25T13:25:19Z</DateUtc></FrequencyChange></FrequencyChanges></Clock>\n",RMEBPD Clinical Cog Load (2.13.15) Laptop version (2)-3016-1,60.006,1.0.0.496,Keyboard,1,JS,1003219245,Full,3.0.3.60,3.0.3.60,6/25/2019,6/25/2019 13:25,9:25:19,3.0.3.43,2,,,,,,,,,?,,2,1,2,,,,,,,,,,,,,Keyboard,1828,3022954,,PANAS,,,,,,,,,,BlockList,,,,,,,,,,,,,20,,,,,,,,,,,,,,,PANAS20.bmp,,,,,,,,,,,,20,1,20,Keyboard,2,1291,3092018,PANASProc,,,,,,,,,,,,,PANASQuestions,,,,,,,
RMEBPD Clinical Cog Load (2.13.15) Laptop version (2),3016,1,"<?xml version=""1.0""?>\n<Clock xmlns:dt=""urn:schemas-microsoft-com:datatypes""><Description dt:dt=""string"">E-Prime Primary Realtime Clock</Description><StartTime><Timestamp dt:dt=""int"">0</Timestamp><DateUtc dt:dt=""string"">2019-06-25T13:25:19Z</DateUtc></StartTime><FrequencyChanges><FrequencyChange><Frequency dt:dt=""r8"">10000000</Frequency><Timestamp dt:dt=""r8"">6267359678485</Timestamp><Current dt:dt=""r8"">0</Current><DateUtc dt:dt=""string"">2019-06-25T13:25:19Z</DateUtc></FrequencyChange></FrequencyChanges></Clock>\n",RMEBPD Clinical Cog Load (2.13.15) Laptop version (2)-3016-1,60.006,1.0.0.496,Keyboard,1,JS,1003219245,Full,3.0.3.60,3.0.3.60,6/25/2019,6/25/2019 13:25,9:25:19,3.0.3.43,2,,,,,,,,,?,,2,1,2,,,,,,,,,,,,,Keyboard,1828,3022954,,PANAS,,,,,,,,,,BlockList,,,,,,,,,,,,,21,,,,,,,,,,,,,,,PANAS21.bmp,,,,,,,,,,,,21,1,21,Keyboard,1,4699,3096842,PANASProc,,,,,,,,,,,,,PANASQuestions,,,,,,,
RMEBPD Clinical Cog Load (2.13.15) Laptop version (2),3016,1,"<?xml version=""1.0""?>\n<Clock xmlns:dt=""urn:schemas-microsoft-com:datatypes""><Description dt:dt=""string"">E-Prime Primary Realtime Clock</Description><StartTime><Timestamp dt:dt=""int"">0</Timestamp><DateUtc dt:dt=""string"">2019-06-25T13:25:19Z</DateUtc></StartTime><FrequencyChanges><FrequencyChange><Frequency dt:dt=""r8"">10000000</Frequency><Timestamp dt:dt=""r8"">6267359678485</Timestamp><Current dt:dt=""r8"">0</Current><DateUtc dt:dt=""string"">2019-06-25T13:25:19Z</DateUtc></FrequencyChange></FrequencyChanges></Clock>\n",RMEBPD Clinical Cog Load (2.13.15) Laptop version (2)-3016-1,60.006,1.0.0.496,Keyboard,1,JS,1003219245,Full,3.0.3.60,3.0.3.60,6/25/2019,6/25/2019 13:25,9:25:19,3.0.3.43,2,,,,,,,,,?,,2,1,2,,,,,,,,,,,,,Keyboard,1828,3022954,,PANAS,,,,,,,,,,BlockList,,,,,,,,,,,,,22,,,,,,,,,,,,,,,PANAS22.bmp,,,,,,,,,,,,22,1,22,Keyboard,2,1882,3098842,PANASProc,,,,,,,,,,,,,PANASQuestions,,,,,,,
RMEBPD Clinical Cog Load (2.13.15) Laptop version (2),3016,1,"<?xml version=""1.0""?>\n<Clock xmlns:dt=""urn:schemas-microsoft-com:datatypes""><Description dt:dt=""string"">E-Prime Primary Realtime Clock</Description><StartTime><Timestamp dt:dt=""int"">0</Timestamp><DateUtc dt:dt=""string"">2019-06-25T13:25:19Z</DateUtc></StartTime><FrequencyChanges><FrequencyChange><Frequency dt:dt=""r8"">10000000</Frequency><Timestamp dt:dt=""r8"">6267359678485</Timestamp><Current dt:dt=""r8"">0</Current><DateUtc dt:dt=""string"">2019-06-25T13:25:19Z</DateUtc></FrequencyChange></FrequencyChanges></Clock>\n",RMEBPD Clinical Cog Load (2.13.15) Laptop version (2)-3016-1,60.006,1.0.0.496,Keyboard,1,JS,1003219245,Full,3.0.3.60,3.0.3.60,6/25/2019,6/25/2019 13:25,9:25:19,3.0.3.43,3,Keyboard,1,3542,3732025,Keyboard,1,2849,3728465,?,Keyboard,3,1,3,,Keyboard,Keyboard,1,1,Keyboard,-999999,31,3149177,1,7673,3156850,,,,Keyboard,RME,0,1,Keyboard,-999999,17,3137694,4,11452,3149146,BlockList,0,,Keyboard,-999999,25,3732050,{TAB},1935,3733985,,,,1,,,,,,,,,,,,,1,1,15 copy.bmp,1,1,Keyboard,-999999,15,3188761,1,5697,3194458,Fr26Km#,r,,,,,,,,RMEProc,0,1,Keyboard,-999999,67,3179144,4,9602,3188746,15,1,1,RMETrialList,,,,,,,
RMEBPD Clinical Cog Load (2.13.15) Laptop version (2),3016,1,"<?xml version=""1.0""?>\n<Clock xmlns:dt=""urn:schemas-microsoft-com:datatypes""><Description dt:dt=""string"">E-Prime Primary Realtime Clock</Description><StartTime><Timestamp dt:dt=""int"">0</Timestamp><DateUtc dt:dt=""string"">2019-06-25T13:25:19Z</DateUtc></StartTime><FrequencyChanges><FrequencyChange><Frequency dt:dt=""r8"">10000000</Frequency><Timestamp dt:dt=""r8"">6267359678485</Timestamp><Current dt:dt=""r8"">0</Current><DateUtc dt:dt=""string"">2019-06-25T13:25:19Z</DateUtc></FrequencyChange></FrequencyChanges></Clock>\n",RMEBPD Clinical Cog Load (2.13.15) Laptop version (2)-3016-1,60.006,1.0.0.496,Keyboard,1,JS,1003219245,Full,3.0.3.60,3.0.3.60,6/25/2019,6/25/2019 13:25,9:25:19,3.0.3.43,3,Keyboard,1,3542,3732025,Keyboard,1,2849,3728465,?,Keyboard,3,1,3,,Keyboard,Keyboard,1,1,Keyboard,-999999,31,3149177,1,7673,3156850,,,,Keyboard,RME,0,1,Keyboard,-999999,17,3137694,4,11452,3149146,BlockList,0,,Keyboard,-999999,25,3732050,{TAB},1935,3733985,,,,2,,,,,,,,,,,,,3,1,23 copy.bmp,1,1,Keyboard,-999999,28,3207278,1,2716,3209994,bQ58*tY,*,,,,,,,,RMEProc,0,3,Keyboard,-999999,66,3199544,4,7706,3207250,23,1,2,RMETrialList,,,,,,,
RMEBPD Clinical Cog Load (2.13.15) Laptop version (2),3016,1,"<?xml version=""1.0""?>\n<Clock xmlns:dt=""urn:schemas-microsoft-com:datatypes""><Description dt:dt=""string"">E-Prime Primary Realtime Clock</Description><StartTime><Timestamp dt:dt=""int"">0</Timestamp><DateUtc dt:dt=""string"">2019-06-25T13:25:19Z</DateUtc></StartTime><FrequencyChanges><FrequencyChange><Frequency dt:dt=""r8"">10000000</Frequency><Timestamp dt:dt=""r8"">6267359678485</Timestamp><Current dt:dt=""r8"">0</Current><DateUtc dt:dt=""string"">2019-06-25T13:25:19Z</DateUtc></FrequencyChange></FrequencyChanges></Clock>\n",RMEBPD Clinical Cog Load (2.13.15) Laptop version (2)-3016-1,60.006,1.0.0.496,Keyboard,1,JS,1003219245,Full,3.0.3.60,3.0.3.60,6/25/2019,6/25/2019 13:25,9:25:19,3.0.3.43,3,Keyboard,1,3542,3732025,Keyboard,1,2849,3728465,?,Keyboard,3,1,3,,Keyboard,Keyboard,1,1,Keyboard,-999999,31,3149177,1,7673,3156850,,,,Keyboard,RME,0,1,Keyboard,-999999,17,3137694,4,11452,3149146,BlockList,0,,Keyboard,-999999,25,3732050,{TAB},1935,3733985,,,,3,,,,,,,,,,,,,1,2,28 copy.bmp,1,2,Keyboard,-999999,26,3225028,2,4606,3229634,JH*tm73,N,,,,,,,,RMEProc,0,1,Keyboard,-999999,67,3215078,3,9924,3225002,28,1,3,RMETrialList,,,,,,,
RMEBPD Clinical Cog Load (2.13.15) Laptop version (2),3016,1,"<?xml version=""1.0""?>\n<Clock xmlns:dt=""urn:schemas-microsoft-com:datatypes""><Description dt:dt=""string"">E-Prime Primary Realtime Clock</Description><StartTime><Timestamp dt:dt=""int"">0</Timestamp><DateUtc dt:dt=""string"">2019-06-25T13:25:19Z</DateUtc></StartTime><FrequencyChanges><FrequencyChange><Frequency dt:dt=""r8"">10000000</Frequency><Timestamp dt:dt=""r8"">6267359678485</Timestamp><Current dt:dt=""r8"">0</Current><DateUtc dt:dt=""string"">2019-06-25T13:25:19Z</DateUtc></FrequencyChange></FrequencyChanges></Clock>\n",RMEBPD Clinical Cog Load (2.13.15) Laptop version (2)-3016-1,60.006,1.0.0.496,Keyboard,1,JS,1003219245,Full,3.0.3.60,3.0.3.60,6/25/2019,6/25/2019 13:25,9:25:19,3.0.3.43,3,Keyboard,1,3542,3732025,Keyboard,1,2849,3728465,?,Keyboard,3,1,3,,Keyboard,Keyboard,1,1,Keyboard,-999999,31,3149177,1,7673,3156850,,,,Keyboard,RME,0,1,Keyboard,-999999,17,3137694,4,11452,3149146,BlockList,0,,Keyboard,-999999,25,3732050,{TAB},1935,3733985,,,,4,,,,,,,,,,,,,1,2,08 copy.bmp,1,2,Keyboard,-999999,19,3242245,2,2685,3244930,Y9y3*w6,f,,,,,,,,RMEProc,1,1,Keyboard,-999999,67,3234728,1,7498,3242226,8,1,4,RMETrialList,,,,,,,
RMEBPD Clinical Cog Load (2.13.15) Laptop version (2),3016,1,"<?xml version=""1.0""?>\n<Clock xmlns:dt=""urn:schemas-microsoft-com:datatypes""><Description dt:dt=""string"">E-Prime Primary Realtime Clock</Description><StartTime><Timestamp dt:dt=""int"">0</Timestamp><DateUtc dt:dt=""string"">2019-06-25T13:25:19Z</DateUtc></StartTime><FrequencyChanges><FrequencyChange><Frequency dt:dt=""r8"">10000000</Frequency><Timestamp dt:dt=""r8"">6267359678485</Timestamp><Current dt:dt=""r8"">0</Current><DateUtc dt:dt=""string"">2019-06-25T13:25:19Z</DateUtc></FrequencyChange></FrequencyChanges></Clock>\n",RMEBPD Clinical Cog Load (2.13.15) Laptop version (2)-3016-1,60.006,1.0.0.496,Keyboard,1,JS,1003219245,Full,3.0.3.60,3.0.3.60,6/25/2019,6/25/2019 13:25,9:25:19,3.0.3.43,3,Keyboard,1,3542,3732025,Keyboard,1,2849,3728465,?,Keyboard,3,1,3,,Keyboard,Keyboard,1,1,Keyboard,-999999,31,3149177,1,7673,3156850,,,,Keyboard,RME,0,1,Keyboard,-999999,17,3137694,4,11452,3149146,BlockList,0,,Keyboard,-999999,25,3732050,{TAB},1935,3733985,,,,5,,,,,,,,,,,,,1,2,22 copy.bmp,1,2,Keyboard,-999999,30,3257328,2,2658,3259986,U8#5nq,J,,,,,,,,RMEProc,1,1,Keyboard,-999999,67,3250028,1,7270,3257298,22,1,5,RMETrialList,,,,,,,
RMEBPD Clinical Cog Load (2.13.15) Laptop version (2),3016,1,"<?xml version=""1.0""?>\n<Clock xmlns:dt=""urn:schemas-microsoft-com:datatypes""><Description dt:dt=""string"">E-Prime Primary Realtime Clock</Description><StartTime><Timestamp dt:dt=""int"">0</Timestamp><DateUtc dt:dt=""string"">2019-06-25T13:25:19Z</DateUtc></StartTime><FrequencyChanges><FrequencyChange><Frequency dt:dt=""r8"">10000000</Frequency><Timestamp dt:dt=""r8"">6267359678485</Timestamp><Current dt:dt=""r8"">0</Current><DateUtc dt:dt=""string"">2019-06-25T13:25:19Z</DateUtc></FrequencyChange></FrequencyChanges></Clock>\n",RMEBPD Clinical Cog Load (2.13.15) Laptop version (2)-3016-1,60.006,1.0.0.496,Keyboard,1,JS,1003219245,Full,3.0.3.60,3.0.3.60,6/25/2019,6/25/2019 13:25,9:25:19,3.0.3.43,3,Keyboard,1,3542,3732025,Keyboard,1,2849,3728465,?,Keyboard,3,1,3,,Keyboard,Keyboard,1,1,Keyboard,-999999,31,3149177,1,7673,3156850,,,,Keyboard,RME,0,1,Keyboard,-999999,17,3137694,4,11452,3149146,BlockList,0,,Keyboard,-999999,25,3732050,{TAB},1935,3733985,,,,6,,,,,,,,,,,,,3,1,03 copy.bmp,1,1,Keyboard,-999999,20,3271478,1,2940,3274418,*y6G93w,*,,,,,,,,RMEProc,1,3,Keyboard,-999999,66,3265078,3,6380,3271458,3,1,6,RMETrialList,,,,,,,
RMEBPD Clinical Cog Load (2.13.15) Laptop version (2),3016,1,"<?xml version=""1.0""?>\n<Clock xmlns:dt=""urn:schemas-microsoft-com:datatypes""><Description dt:dt=""string"">E-Prime Primary Realtime Clock</Description><StartTime><Timestamp dt:dt=""int"">0</Timestamp><DateUtc dt:dt=""string"">2019-06-25T13:25:19Z</DateUtc></StartTime><FrequencyChanges><FrequencyChange><Frequency dt:dt=""r8"">10000000</Frequency><Timestamp dt:dt=""r8"">6267359678485</Timestamp><Current dt:dt=""r8"">0</Current><DateUtc dt:dt=""string"">2019-06-25T13:25:19Z</DateUtc></FrequencyChange></FrequencyChanges></Clock>\n",RMEBPD Clinical Cog Load (2.13.15) Laptop version (2)-3016-1,60.006,1.0.0.496,Keyboard,1,JS,1003219245,Full,3.0.3.60,3.0.3.60,6/25/2019,6/25/2019 13:25,9:25:19,3.0.3.43,3,Keyboard,1,3542,3732025,Keyboard,1,2849,3728465,?,Keyboard,3,1,3,,Keyboard,Keyboard,1,1,Keyboard,-999999,31,3149177,1,7673,3156850,,,,Keyboard,RME,0,1,Keyboard,-999999,17,3137694,4,11452,3149146,BlockList,0,,Keyboard,-999999,25,3732050,{TAB},1935,3733985,,,,7,,,,,,,,,,,,,2,2,20 copy.bmp,0,2,Keyboard,-999999,34,3287212,1,4662,3291874,Ev*41x2,d,,,,,,,,RMEProc,1,2,Keyboard,-999999,67,3279512,2,7665,3287177,20,1,7,RMETrialList,,,,,,,
RMEBPD Clinical Cog Load (2.13.15) Laptop version (2),3016,1,"<?xml version=""1.0""?>\n<Clock xmlns:dt=""urn:schemas-microsoft-com:datatypes""><Description dt:dt=""string"">E-Prime Primary Realtime Clock</Description><StartTime><Timestamp dt:dt=""int"">0</Timestamp><DateUtc dt:dt=""string"">2019-06-25T13:25:19Z</DateUtc></StartTime><FrequencyChanges><FrequencyChange><Frequency dt:dt=""r8"">10000000</Frequency><Timestamp dt:dt=""r8"">6267359678485</Timestamp><Current dt:dt=""r8"">0</Current><DateUtc dt:dt=""string"">2019-06-25T13:25:19Z</DateUtc></FrequencyChange></FrequencyChanges></Clock>\n",RMEBPD Clinical Cog Load (2.13.15) Laptop version (2)-3016-1,60.006,1.0.0.496,Keyboard,1,JS,1003219245,Full,3.0.3.60,3.0.3.60,6/25/2019,6/25/2019 13:25,9:25:19,3.0.3.43,3,Keyboard,1,3542,3732025,Keyboard,1,2849,3728465,?,Keyboard,3,1,3,,Keyboard,Keyboard,1,1,Keyboard,-999999,31,3149177,1,7673,3156850,,,,Keyboard,RME,0,1,Keyboard,-999999,17,3137694,4,11452,3149146,BlockList,0,,Keyboard,-999999,25,3732050,{TAB},1935,3733985,,,,8,,,,,,,,,,,,,2,1,21 copy.bmp,0,1,Keyboard,-999999,22,3302512,2,2498,3305010,H#6s53Q,6,,,,,,,,RMEProc,1,2,Keyboard,-999999,67,3296962,2,5528,3302490,21,1,8,RMETrialList,,,,,,,
RMEBPD Clinical Cog Load (2.13.15) Laptop version (2),3016,1,"<?xml version=""1.0""?>\n<Clock xmlns:dt=""urn:schemas-microsoft-com:datatypes""><Description dt:dt=""string"">E-Prime Primary Realtime Clock</Description><StartTime><Timestamp dt:dt=""int"">0</Timestamp><DateUtc dt:dt=""string"">2019-06-25T13:25:19Z</DateUtc></StartTime><FrequencyChanges><FrequencyChange><Frequency dt:dt=""r8"">10000000</Frequency><Timestamp dt:dt=""r8"">6267359678485</Timestamp><Current dt:dt=""r8"">0</Current><DateUtc dt:dt=""string"">2019-06-25T13:25:19Z</DateUtc></FrequencyChange></FrequencyChanges></Clock>\n",RMEBPD Clinical Cog Load (2.13.15) Laptop version (2)-3016-1,60.006,1.0.0.496,Keyboard,1,JS,1003219245,Full,3.0.3.60,3.0.3.60,6/25/2019,6/25/2019 13:25,9:25:19,3.0.3.43,3,Keyboard,1,3542,3732025,Keyboard,1,2849,3728465,?,Keyboard,3,1,3,,Keyboard,Keyboard,1,1,Keyboard,-999999,31,3149177,1,7673,3156850,,,,Keyboard,RME,0,1,Keyboard,-999999,17,3137694,4,11452,3149146,BlockList,0,,Keyboard,-999999,25,3732050,{TAB},1935,3733985,,,,9,,,,,,,,,,,,,3,2,12 copy.bmp,1,2,Keyboard,-999999,41,3315979,2,3023,3319002,K#zr5N6,2,,,,,,,,RMEProc,1,3,Keyboard,-999999,66,3310095,3,5843,3315938,12,1,9,RMETrialList,,,,,,,
RMEBPD Clinical Cog Load (2.13.15) Laptop version (2),3016,1,"<?xml version=""1.0""?>\n<Clock xmlns:dt=""urn:schemas-microsoft-com:datatypes""><Description dt:dt=""string"">E-Prime Primary Realtime Clock</Description><StartTime><Timestamp dt:dt=""int"">0</Timestamp><DateUtc dt:dt=""string"">2019-06-25T13:25:19Z</DateUtc></StartTime><FrequencyChanges><FrequencyChange><Frequency dt:dt=""r8"">10000000</Frequency><Timestamp dt:dt=""r8"">6267359678485</Timestamp><Current dt:dt=""r8"">0</Current><DateUtc dt:dt=""string"">2019-06-25T13:25:19Z</DateUtc></FrequencyChange></FrequencyChanges></Clock>\n",RMEBPD Clinical Cog Load (2.13.15) Laptop version (2)-3016-1,60.006,1.0.0.496,Keyboard,1,JS,1003219245,Full,3.0.3.60,3.0.3.60,6/25/2019,6/25/2019 13:25,9:25:19,3.0.3.43,3,Keyboard,1,3542,3732025,Keyboard,1,2849,3728465,?,Keyboard,3,1,3,,Keyboard,Keyboard,1,1,Keyboard,-999999,31,3149177,1,7673,3156850,,,,Keyboard,RME,0,1,Keyboard,-999999,17,3137694,4,11452,3149146,BlockList,0,,Keyboard,-999999,25,3732050,{TAB},1935,3733985,,,,10,,,,,,,,,,,,,4,1,29 copy.bmp,0,1,Keyboard,-999999,42,3330396,2,2430,3332826,Kq#694b,4,,,,,,,,RMEProc,1,4,Keyboard,-999999,66,3324095,4,6259,3330354,29,1,10,RMETrialList,,,,,,,
RMEBPD Clinical Cog Load (2.13.15) Laptop version (2),3016,1,"<?xml version=""1.0""?>\n<Clock xmlns:dt=""urn:schemas-microsoft-com:datatypes""><Description dt:dt=""string"">E-Prime Primary Realtime Clock</Description><StartTime><Timestamp dt:dt=""int"">0</Timestamp><DateUtc dt:dt=""string"">2019-06-25T13:25:19Z</DateUtc></StartTime><FrequencyChanges><FrequencyChange><Frequency dt:dt=""r8"">10000000</Frequency><Timestamp dt:dt=""r8"">6267359678485</Timestamp><Current dt:dt=""r8"">0</Current><DateUtc dt:dt=""string"">2019-06-25T13:25:19Z</DateUtc></FrequencyChange></FrequencyChanges></Clock>\n",RMEBPD Clinical Cog Load (2.13.15) Laptop version (2)-3016-1,60.006,1.0.0.496,Keyboard,1,JS,1003219245,Full,3.0.3.60,3.0.3.60,6/25/2019,6/25/2019 13:25,9:25:19,3.0.3.43,3,Keyboard,1,3542,3732025,Keyboard,1,2849,3728465,?,Keyboard,3,1,3,,Keyboard,Keyboard,1,1,Keyboard,-999999,31,3149177,1,7673,3156850,,,,Keyboard,RME,0,1,Keyboard,-999999,17,3137694,4,11452,3149146,BlockList,0,,Keyboard,-999999,25,3732050,{TAB},1935,3733985,,,,11,,,,,,,,,,,,,3,2,36 copy.bmp,1,2,Keyboard,-999999,22,3343696,2,2522,3346218,*9x54tF,^,,,,,,,,RMEProc,1,3,Keyboard,-999999,66,3337912,3,5762,3343674,36,1,11,RMETrialList,,,,,,,
RMEBPD Clinical Cog Load (2.13.15) Laptop version (2),3016,1,"<?xml version=""1.0""?>\n<Clock xmlns:dt=""urn:schemas-microsoft-com:datatypes""><Description dt:dt=""string"">E-Prime Primary Realtime Clock</Description><StartTime><Timestamp dt:dt=""int"">0</Timestamp><DateUtc dt:dt=""string"">2019-06-25T13:25:19Z</DateUtc></StartTime><FrequencyChanges><FrequencyChange><Frequency dt:dt=""r8"">10000000</Frequency><Timestamp dt:dt=""r8"">6267359678485</Timestamp><Current dt:dt=""r8"">0</Current><DateUtc dt:dt=""string"">2019-06-25T13:25:19Z</DateUtc></FrequencyChange></FrequencyChanges></Clock>\n",RMEBPD Clinical Cog Load (2.13.15) Laptop version (2)-3016-1,60.006,1.0.0.496,Keyboard,1,JS,1003219245,Full,3.0.3.60,3.0.3.60,6/25/2019,6/25/2019 13:25,9:25:19,3.0.3.43,3,Keyboard,1,3542,3732025,Keyboard,1,2849,3728465,?,Keyboard,3,1,3,,Keyboard,Keyboard,1,1,Keyboard,-999999,31,3149177,1,7673,3156850,,,,Keyboard,RME,0,1,Keyboard,-999999,17,3137694,4,11452,3149146,BlockList,0,,Keyboard,-999999,25,3732050,{TAB},1935,3733985,,,,12,,,,,,,,,,,,,1,2,32 copy.bmp,0,2,Keyboard,-999999,29,3367079,1,2499,3369578,Ty34*g5,j,,,,,,,,RMEProc,1,1,Keyboard,-999999,66,3351312,1,15738,3367050,32,1,12,RMETrialList,,,,,,,
RMEBPD Clinical Cog Load (2.13.15) Laptop version (2),3016,1,"<?xml version=""1.0""?>\n<Clock xmlns:dt=""urn:schemas-microsoft-com:datatypes""><Description dt:dt=""string"">E-Prime Primary Realtime Clock</Description><StartTime><Timestamp dt:dt=""int"">0</Timestamp><DateUtc dt:dt=""string"">2019-06-25T13:25:19Z</DateUtc></StartTime><FrequencyChanges><FrequencyChange><Frequency dt:dt=""r8"">10000000</Frequency><Timestamp dt:dt=""r8"">6267359678485</Timestamp><Current dt:dt=""r8"">0</Current><DateUtc dt:dt=""string"">2019-06-25T13:25:19Z</DateUtc></FrequencyChange></FrequencyChanges></Clock>\n",RMEBPD Clinical Cog Load (2.13.15) Laptop version (2)-3016-1,60.006,1.0.0.496,Keyboard,1,JS,1003219245,Full,3.0.3.60,3.0.3.60,6/25/2019,6/25/2019 13:25,9:25:19,3.0.3.43,3,Keyboard,1,3542,3732025,Keyboard,1,2849,3728465,?,Keyboard,3,1,3,,Keyboard,Keyboard,1,1,Keyboard,-999999,31,3149177,1,7673,3156850,,,,Keyboard,RME,0,1,Keyboard,-999999,17,3137694,4,11452,3149146,BlockList,0,,Keyboard,-999999,25,3732050,{TAB},1935,3733985,,,,13,,,,,,,,,,,,,2,1,35 copy.bmp,0,1,Keyboard,-999999,16,3378946,2,2536,3381482,K62*mF3,m,,,,,,,,RMEProc,0,2,Keyboard,-999999,66,3374679,4,4251,3378930,35,1,13,RMETrialList,,,,,,,
RMEBPD Clinical Cog Load (2.13.15) Laptop version (2),3016,1,"<?xml version=""1.0""?>\n<Clock xmlns:dt=""urn:schemas-microsoft-com:datatypes""><Description dt:dt=""string"">E-Prime Primary Realtime Clock</Description><StartTime><Timestamp dt:dt=""int"">0</Timestamp><DateUtc dt:dt=""string"">2019-06-25T13:25:19Z</DateUtc></StartTime><FrequencyChanges><FrequencyChange><Frequency dt:dt=""r8"">10000000</Frequency><Timestamp dt:dt=""r8"">6267359678485</Timestamp><Current dt:dt=""r8"">0</Current><DateUtc dt:dt=""string"">2019-06-25T13:25:19Z</DateUtc></FrequencyChange></FrequencyChanges></Clock>\n",RMEBPD Clinical Cog Load (2.13.15) Laptop version (2)-3016-1,60.006,1.0.0.496,Keyboard,1,JS,1003219245,Full,3.0.3.60,3.0.3.60,6/25/2019,6/25/2019 13:25,9:25:19,3.0.3.43,3,Keyboard,1,3542,3732025,Keyboard,1,2849,3728465,?,Keyboard,3,1,3,,Keyboard,Keyboard,1,1,Keyboard,-999999,31,3149177,1,7673,3156850,,,,Keyboard,RME,0,1,Keyboard,-999999,17,3137694,4,11452,3149146,BlockList,0,,Keyboard,-999999,25,3732050,{TAB},1935,3733985,,,,14,,,,,,,,,,,,,1,2,18 copy.bmp,1,2,Keyboard,-999999,26,3393780,2,2806,3396586,bF6n*q8,e,,,,,,,,RMEProc,0,1,Keyboard,-999999,66,3386579,3,7174,3393753,18,1,14,RMETrialList,,,,,,,
RMEBPD Clinical Cog Load (2.13.15) Laptop version (2),3016,1,"<?xml version=""1.0""?>\n<Clock xmlns:dt=""urn:schemas-microsoft-com:datatypes""><Description dt:dt=""string"">E-Prime Primary Realtime Clock</Description><StartTime><Timestamp dt:dt=""int"">0</Timestamp><DateUtc dt:dt=""string"">2019-06-25T13:25:19Z</DateUtc></StartTime><FrequencyChanges><FrequencyChange><Frequency dt:dt=""r8"">10000000</Frequency><Timestamp dt:dt=""r8"">6267359678485</Timestamp><Current dt:dt=""r8"">0</Current><DateUtc dt:dt=""string"">2019-06-25T13:25:19Z</DateUtc></FrequencyChange></FrequencyChanges></Clock>\n",RMEBPD Clinical Cog Load (2.13.15) Laptop version (2)-3016-1,60.006,1.0.0.496,Keyboard,1,JS,1003219245,Full,3.0.3.60,3.0.3.60,6/25/2019,6/25/2019 13:25,9:25:19,3.0.3.43,3,Keyboard,1,3542,3732025,Keyboard,1,2849,3728465,?,Keyboard,3,1,3,,Keyboard,Keyboard,1,1,Keyboard,-999999,31,3149177,1,7673,3156850,,,,Keyboard,RME,0,1,Keyboard,-999999,17,3137694,4,11452,3149146,BlockList,0,,Keyboard,-999999,25,3732050,{TAB},1935,3733985,,,,15,,,,,,,,,,,,,1,2,24 copy.bmp,1,2,Keyboard,-999999,21,3408246,2,4851,3413097,*9Xha64,5,,,,,,,,RMEProc,1,1,Keyboard,-999999,66,3401696,1,6529,3408225,24,1,15,RMETrialList,,,,,,,
RMEBPD Clinical Cog Load (2.13.15) Laptop version (2),3016,1,"<?xml version=""1.0""?>\n<Clock xmlns:dt=""urn:schemas-microsoft-com:datatypes""><Description dt:dt=""string"">E-Prime Primary Realtime Clock</Description><StartTime><Timestamp dt:dt=""int"">0</Timestamp><DateUtc dt:dt=""string"">2019-06-25T13:25:19Z</DateUtc></StartTime><FrequencyChanges><FrequencyChange><Frequency dt:dt=""r8"">10000000</Frequency><Timestamp dt:dt=""r8"">6267359678485</Timestamp><Current dt:dt=""r8"">0</Current><DateUtc dt:dt=""string"">2019-06-25T13:25:19Z</DateUtc></FrequencyChange></FrequencyChanges></Clock>\n",RMEBPD Clinical Cog Load (2.13.15) Laptop version (2)-3016-1,60.006,1.0.0.496,Keyboard,1,JS,1003219245,Full,3.0.3.60,3.0.3.60,6/25/2019,6/25/2019 13:25,9:25:19,3.0.3.43,3,Keyboard,1,3542,3732025,Keyboard,1,2849,3728465,?,Keyboard,3,1,3,,Keyboard,Keyboard,1,1,Keyboard,-999999,31,3149177,1,7673,3156850,,,,Keyboard,RME,0,1,Keyboard,-999999,17,3137694,4,11452,3149146,BlockList,0,,Keyboard,-999999,25,3732050,{TAB},1935,3733985,,,,16,,,,,,,,,,,,,3,2,34 copy.bmp,0,2,Keyboard,-999999,29,3423463,1,2579,3426042,K#5Nt98,f,,,,,,,,RMEProc,1,3,Keyboard,-999999,67,3418197,3,5237,3423434,34,1,16,RMETrialList,,,,,,,
RMEBPD Clinical Cog Load (2.13.15) Laptop version (2),3016,1,"<?xml version=""1.0""?>\n<Clock xmlns:dt=""urn:schemas-microsoft-com:datatypes""><Description dt:dt=""string"">E-Prime Primary Realtime Clock</Description><StartTime><Timestamp dt:dt=""int"">0</Timestamp><DateUtc dt:dt=""string"">2019-06-25T13:25:19Z</DateUtc></StartTime><FrequencyChanges><FrequencyChange><Frequency dt:dt=""r8"">10000000</Frequency><Timestamp dt:dt=""r8"">6267359678485</Timestamp><Current dt:dt=""r8"">0</Current><DateUtc dt:dt=""string"">2019-06-25T13:25:19Z</DateUtc></FrequencyChange></FrequencyChanges></Clock>\n",RMEBPD Clinical Cog Load (2.13.15) Laptop version (2)-3016-1,60.006,1.0.0.496,Keyboard,1,JS,1003219245,Full,3.0.3.60,3.0.3.60,6/25/2019,6/25/2019 13:25,9:25:19,3.0.3.43,3,Keyboard,1,3542,3732025,Keyboard,1,2849,3728465,?,Keyboard,3,1,3,,Keyboard,Keyboard,1,1,Keyboard,-999999,31,3149177,1,7673,3156850,,,,Keyboard,RME,0,1,Keyboard,-999999,17,3137694,4,11452,3149146,BlockList,0,,Keyboard,-999999,25,3732050,{TAB},1935,3733985,,,,17,,,,,,,,,,,,,4,1,09 copy.bmp,0,1,Keyboard,-999999,33,3437147,2,2750,3439897,85tn3#1d,#,,,,,,,,RMEProc,1,4,Keyboard,-999999,67,3431147,4,5966,3437113,9,1,17,RMETrialList,,,,,,,
RMEBPD Clinical Cog Load (2.13.15) Laptop version (2),3016,1,"<?xml version=""1.0""?>\n<Clock xmlns:dt=""urn:schemas-microsoft-com:datatypes""><Description dt:dt=""string"">E-Prime Primary Realtime Clock</Description><StartTime><Timestamp dt:dt=""int"">0</Timestamp><DateUtc dt:dt=""string"">2019-06-25T13:25:19Z</DateUtc></StartTime><FrequencyChanges><FrequencyChange><Frequency dt:dt=""r8"">10000000</Frequency><Timestamp dt:dt=""r8"">6267359678485</Timestamp><Current dt:dt=""r8"">0</Current><DateUtc dt:dt=""string"">2019-06-25T13:25:19Z</DateUtc></FrequencyChange></FrequencyChanges></Clock>\n",RMEBPD Clinical Cog Load (2.13.15) Laptop version (2)-3016-1,60.006,1.0.0.496,Keyboard,1,JS,1003219245,Full,3.0.3.60,3.0.3.60,6/25/2019,6/25/2019 13:25,9:25:19,3.0.3.43,3,Keyboard,1,3542,3732025,Keyboard,1,2849,3728465,?,Keyboard,3,1,3,,Keyboard,Keyboard,1,1,Keyboard,-999999,31,3149177,1,7673,3156850,,,,Keyboard,RME,0,1,Keyboard,-999999,17,3137694,4,11452,3149146,BlockList,0,,Keyboard,-999999,25,3732050,{TAB},1935,3733985,,,,18,,,,,,,,,,,,,3,1,05 copy.bmp,0,1,Keyboard,-999999,38,3448680,2,2257,3450937,#pC53Wz,p,,,,,,,,RMEProc,1,3,Keyboard,-999999,67,3444997,3,3644,3448641,5,1,18,RMETrialList,,,,,,,
RMEBPD Clinical Cog Load (2.13.15) Laptop version (2),3016,1,"<?xml version=""1.0""?>\n<Clock xmlns:dt=""urn:schemas-microsoft-com:datatypes""><Description dt:dt=""string"">E-Prime Primary Realtime Clock</Description><StartTime><Timestamp dt:dt=""int"">0</Timestamp><DateUtc dt:dt=""string"">2019-06-25T13:25:19Z</DateUtc></StartTime><FrequencyChanges><FrequencyChange><Frequency dt:dt=""r8"">10000000</Frequency><Timestamp dt:dt=""r8"">6267359678485</Timestamp><Current dt:dt=""r8"">0</Current><DateUtc dt:dt=""string"">2019-06-25T13:25:19Z</DateUtc></FrequencyChange></FrequencyChanges></Clock>\n",RMEBPD Clinical Cog Load (2.13.15) Laptop version (2)-3016-1,60.006,1.0.0.496,Keyboard,1,JS,1003219245,Full,3.0.3.60,3.0.3.60,6/25/2019,6/25/2019 13:25,9:25:19,3.0.3.43,3,Keyboard,1,3542,3732025,Keyboard,1,2849,3728465,?,Keyboard,3,1,3,,Keyboard,Keyboard,1,1,Keyboard,-999999,31,3149177,1,7673,3156850,,,,Keyboard,RME,0,1,Keyboard,-999999,17,3137694,4,11452,3149146,BlockList,0,,Keyboard,-999999,25,3732050,{TAB},1935,3733985,,,,19,,,,,,,,,,,,,4,1,19 copy.bmp,0,1,Keyboard,-999999,18,3466980,2,4686,3471666,v5GH79*,5,,,,,,,,RMEProc,1,4,Keyboard,-999999,67,3456030,4,10931,3466961,19,1,19,RMETrialList,,,,,,,
RMEBPD Clinical Cog Load (2.13.15) Laptop version (2),3016,1,"<?xml version=""1.0""?>\n<Clock xmlns:dt=""urn:schemas-microsoft-com:datatypes""><Description dt:dt=""string"">E-Prime Primary Realtime Clock</Description><StartTime><Timestamp dt:dt=""int"">0</Timestamp><DateUtc dt:dt=""string"">2019-06-25T13:25:19Z</DateUtc></StartTime><FrequencyChanges><FrequencyChange><Frequency dt:dt=""r8"">10000000</Frequency><Timestamp dt:dt=""r8"">6267359678485</Timestamp><Current dt:dt=""r8"">0</Current><DateUtc dt:dt=""string"">2019-06-25T13:25:19Z</DateUtc></FrequencyChange></FrequencyChanges></Clock>\n",RMEBPD Clinical Cog Load (2.13.15) Laptop version (2)-3016-1,60.006,1.0.0.496,Keyboard,1,JS,1003219245,Full,3.0.3.60,3.0.3.60,6/25/2019,6/25/2019 13:25,9:25:19,3.0.3.43,3,Keyboard,1,3542,3732025,Keyboard,1,2849,3728465,?,Keyboard,3,1,3,,Keyboard,Keyboard,1,1,Keyboard,-999999,31,3149177,1,7673,3156850,,,,Keyboard,RME,0,1,Keyboard,-999999,17,3137694,4,11452,3149146,BlockList,0,,Keyboard,-999999,25,3732050,{TAB},1935,3733985,,,,20,,,,,,,,,,,,,2,2,04 copy.bmp,1,2,Keyboard,-999999,19,3484597,2,2132,3486729,89F5*qp,6,,,,,,,,RMEProc,1,2,Keyboard,-999999,67,3476764,2,7813,3484577,4,1,20,RMETrialList,,,,,,,
RMEBPD Clinical Cog Load (2.13.15) Laptop version (2),3016,1,"<?xml version=""1.0""?>\n<Clock xmlns:dt=""urn:schemas-microsoft-com:datatypes""><Description dt:dt=""string"">E-Prime Primary Realtime Clock</Description><StartTime><Timestamp dt:dt=""int"">0</Timestamp><DateUtc dt:dt=""string"">2019-06-25T13:25:19Z</DateUtc></StartTime><FrequencyChanges><FrequencyChange><Frequency dt:dt=""r8"">10000000</Frequency><Timestamp dt:dt=""r8"">6267359678485</Timestamp><Current dt:dt=""r8"">0</Current><DateUtc dt:dt=""string"">2019-06-25T13:25:19Z</DateUtc></FrequencyChange></FrequencyChanges></Clock>\n",RMEBPD Clinical Cog Load (2.13.15) Laptop version (2)-3016-1,60.006,1.0.0.496,Keyboard,1,JS,1003219245,Full,3.0.3.60,3.0.3.60,6/25/2019,6/25/2019 13:25,9:25:19,3.0.3.43,3,Keyboard,1,3542,3732025,Keyboard,1,2849,3728465,?,Keyboard,3,1,3,,Keyboard,Keyboard,1,1,Keyboard,-999999,31,3149177,1,7673,3156850,,,,Keyboard,RME,0,1,Keyboard,-999999,17,3137694,4,11452,3149146,BlockList,0,,Keyboard,-999999,25,3732050,{TAB},1935,3733985,,,,21,,,,,,,,,,,,,2,2,02 copy.bmp,0,2,Keyboard,-999999,29,3497431,1,2674,3500105,G#935zq,g,,,,,,,,RMEProc,0,2,Keyboard,-999999,67,3491831,1,5570,3497401,2,1,21,RMETrialList,,,,,,,
RMEBPD Clinical Cog Load (2.13.15) Laptop version (2),3016,1,"<?xml version=""1.0""?>\n<Clock xmlns:dt=""urn:schemas-microsoft-com:datatypes""><Description dt:dt=""string"">E-Prime Primary Realtime Clock</Description><StartTime><Timestamp dt:dt=""int"">0</Timestamp><DateUtc dt:dt=""string"">2019-06-25T13:25:19Z</DateUtc></StartTime><FrequencyChanges><FrequencyChange><Frequency dt:dt=""r8"">10000000</Frequency><Timestamp dt:dt=""r8"">6267359678485</Timestamp><Current dt:dt=""r8"">0</Current><DateUtc dt:dt=""string"">2019-06-25T13:25:19Z</DateUtc></FrequencyChange></FrequencyChanges></Clock>\n",RMEBPD Clinical Cog Load (2.13.15) Laptop version (2)-3016-1,60.006,1.0.0.496,Keyboard,1,JS,1003219245,Full,3.0.3.60,3.0.3.60,6/25/2019,6/25/2019 13:25,9:25:19,3.0.3.43,3,Keyboard,1,3542,3732025,Keyboard,1,2849,3728465,?,Keyboard,3,1,3,,Keyboard,Keyboard,1,1,Keyboard,-999999,31,3149177,1,7673,3156850,,,,Keyboard,RME,0,1,Keyboard,-999999,17,3137694,4,11452,3149146,BlockList,0,,Keyboard,-999999,25,3732050,{TAB},1935,3733985,,,,22,,,,,,,,,,,,,3,1,07 copy.bmp,0,1,Keyboard,-999999,25,3512147,2,1846,3513993,s37PX#j,7,,,,,,,,RMEProc,0,3,Keyboard,-999999,66,3505197,2,6924,3512121,7,1,22,RMETrialList,,,,,,,
RMEBPD Clinical Cog Load (2.13.15) Laptop version (2),3016,1,"<?xml version=""1.0""?>\n<Clock xmlns:dt=""urn:schemas-microsoft-com:datatypes""><Description dt:dt=""string"">E-Prime Primary Realtime Clock</Description><StartTime><Timestamp dt:dt=""int"">0</Timestamp><DateUtc dt:dt=""string"">2019-06-25T13:25:19Z</DateUtc></StartTime><FrequencyChanges><FrequencyChange><Frequency dt:dt=""r8"">10000000</Frequency><Timestamp dt:dt=""r8"">6267359678485</Timestamp><Current dt:dt=""r8"">0</Current><DateUtc dt:dt=""string"">2019-06-25T13:25:19Z</DateUtc></FrequencyChange></FrequencyChanges></Clock>\n",RMEBPD Clinical Cog Load (2.13.15) Laptop version (2)-3016-1,60.006,1.0.0.496,Keyboard,1,JS,1003219245,Full,3.0.3.60,3.0.3.60,6/25/2019,6/25/2019 13:25,9:25:19,3.0.3.43,3,Keyboard,1,3542,3732025,Keyboard,1,2849,3728465,?,Keyboard,3,1,3,,Keyboard,Keyboard,1,1,Keyboard,-999999,31,3149177,1,7673,3156850,,,,Keyboard,RME,0,1,Keyboard,-999999,17,3137694,4,11452,3149146,BlockList,0,,Keyboard,-999999,25,3732050,{TAB},1935,3733985,,,,23,,,,,,,,,,,,,2,2,16 copy.bmp,1,2,Keyboard,-999999,17,3524331,2,4326,3528657,U*9gq51,Q,,,,,,,,RMEProc,0,2,Keyboard,-999999,100,3519114,3,5200,3524314,16,1,23,RMETrialList,,,,,,,
RMEBPD Clinical Cog Load (2.13.15) Laptop version (2),3016,1,"<?xml version=""1.0""?>\n<Clock xmlns:dt=""urn:schemas-microsoft-com:datatypes""><Description dt:dt=""string"">E-Prime Primary Realtime Clock</Description><StartTime><Timestamp dt:dt=""int"">0</Timestamp><DateUtc dt:dt=""string"">2019-06-25T13:25:19Z</DateUtc></StartTime><FrequencyChanges><FrequencyChange><Frequency dt:dt=""r8"">10000000</Frequency><Timestamp dt:dt=""r8"">6267359678485</Timestamp><Current dt:dt=""r8"">0</Current><DateUtc dt:dt=""string"">2019-06-25T13:25:19Z</DateUtc></FrequencyChange></FrequencyChanges></Clock>\n",RMEBPD Clinical Cog Load (2.13.15) Laptop version (2)-3016-1,60.006,1.0.0.496,Keyboard,1,JS,1003219245,Full,3.0.3.60,3.0.3.60,6/25/2019,6/25/2019 13:25,9:25:19,3.0.3.43,3,Keyboard,1,3542,3732025,Keyboard,1,2849,3728465,?,Keyboard,3,1,3,,Keyboard,Keyboard,1,1,Keyboard,-999999,31,3149177,1,7673,3156850,,,,Keyboard,RME,0,1,Keyboard,-999999,17,3137694,4,11452,3149146,BlockList,0,,Keyboard,-999999,25,3732050,{TAB},1935,3733985,,,,24,,,,,,,,,,,,,2,1,13 copy.bmp,1,1,Keyboard,-999999,36,3546381,1,2156,3548537,42*tg6D,t,,,,,,,,RMEProc,0,2,Keyboard,-999999,83,3533764,4,12581,3546345,13,1,24,RMETrialList,,,,,,,
RMEBPD Clinical Cog Load (2.13.15) Laptop version (2),3016,1,"<?xml version=""1.0""?>\n<Clock xmlns:dt=""urn:schemas-microsoft-com:datatypes""><Description dt:dt=""string"">E-Prime Primary Realtime Clock</Description><StartTime><Timestamp dt:dt=""int"">0</Timestamp><DateUtc dt:dt=""string"">2019-06-25T13:25:19Z</DateUtc></StartTime><FrequencyChanges><FrequencyChange><Frequency dt:dt=""r8"">10000000</Frequency><Timestamp dt:dt=""r8"">6267359678485</Timestamp><Current dt:dt=""r8"">0</Current><DateUtc dt:dt=""string"">2019-06-25T13:25:19Z</DateUtc></FrequencyChange></FrequencyChanges></Clock>\n",RMEBPD Clinical Cog Load (2.13.15) Laptop version (2)-3016-1,60.006,1.0.0.496,Keyboard,1,JS,1003219245,Full,3.0.3.60,3.0.3.60,6/25/2019,6/25/2019 13:25,9:25:19,3.0.3.43,3,Keyboard,1,3542,3732025,Keyboard,1,2849,3728465,?,Keyboard,3,1,3,,Keyboard,Keyboard,1,1,Keyboard,-999999,31,3149177,1,7673,3156850,,,,Keyboard,RME,0,1,Keyboard,-999999,17,3137694,4,11452,3149146,BlockList,0,,Keyboard,-999999,25,3732050,{TAB},1935,3733985,,,,25,,,,,,,,,,,,,1,1,01 copy.bmp,1,1,Keyboard,-999999,30,3556248,1,3497,3559745,Hj6973*,j,,,,,,,,RMEProc,1,1,Keyboard,-999999,67,3553648,1,2569,3556217,1,1,25,RMETrialList,,,,,,,
RMEBPD Clinical Cog Load (2.13.15) Laptop version (2),3016,1,"<?xml version=""1.0""?>\n<Clock xmlns:dt=""urn:schemas-microsoft-com:datatypes""><Description dt:dt=""string"">E-Prime Primary Realtime Clock</Description><StartTime><Timestamp dt:dt=""int"">0</Timestamp><DateUtc dt:dt=""string"">2019-06-25T13:25:19Z</DateUtc></StartTime><FrequencyChanges><FrequencyChange><Frequency dt:dt=""r8"">10000000</Frequency><Timestamp dt:dt=""r8"">6267359678485</Timestamp><Current dt:dt=""r8"">0</Current><DateUtc dt:dt=""string"">2019-06-25T13:25:19Z</DateUtc></FrequencyChange></FrequencyChanges></Clock>\n",RMEBPD Clinical Cog Load (2.13.15) Laptop version (2)-3016-1,60.006,1.0.0.496,Keyboard,1,JS,1003219245,Full,3.0.3.60,3.0.3.60,6/25/2019,6/25/2019 13:25,9:25:19,3.0.3.43,3,Keyboard,1,3542,3732025,Keyboard,1,2849,3728465,?,Keyboard,3,1,3,,Keyboard,Keyboard,1,1,Keyboard,-999999,31,3149177,1,7673,3156850,,,,Keyboard,RME,0,1,Keyboard,-999999,17,3137694,4,11452,3149146,BlockList,0,,Keyboard,-999999,25,3732050,{TAB},1935,3733985,,,,26,,,,,,,,,,,,,3,2,26 copy.bmp,0,2,Keyboard,-999999,31,3573648,1,2809,3576457,pDF59#1,q,,,,,,,,RMEProc,1,3,Keyboard,-999999,66,3564831,3,8786,3573617,26,1,26,RMETrialList,,,,,,,
RMEBPD Clinical Cog Load (2.13.15) Laptop version (2),3016,1,"<?xml version=""1.0""?>\n<Clock xmlns:dt=""urn:schemas-microsoft-com:datatypes""><Description dt:dt=""string"">E-Prime Primary Realtime Clock</Description><StartTime><Timestamp dt:dt=""int"">0</Timestamp><DateUtc dt:dt=""string"">2019-06-25T13:25:19Z</DateUtc></StartTime><FrequencyChanges><FrequencyChange><Frequency dt:dt=""r8"">10000000</Frequency><Timestamp dt:dt=""r8"">6267359678485</Timestamp><Current dt:dt=""r8"">0</Current><DateUtc dt:dt=""string"">2019-06-25T13:25:19Z</DateUtc></FrequencyChange></FrequencyChanges></Clock>\n",RMEBPD Clinical Cog Load (2.13.15) Laptop version (2)-3016-1,60.006,1.0.0.496,Keyboard,1,JS,1003219245,Full,3.0.3.60,3.0.3.60,6/25/2019,6/25/2019 13:25,9:25:19,3.0.3.43,3,Keyboard,1,3542,3732025,Keyboard,1,2849,3728465,?,Keyboard,3,1,3,,Keyboard,Keyboard,1,1,Keyboard,-999999,31,3149177,1,7673,3156850,,,,Keyboard,RME,0,1,Keyboard,-999999,17,3137694,4,11452,3149146,BlockList,0,,Keyboard,-999999,25,3732050,{TAB},1935,3733985,,,,27,,,,,,,,,,,,,2,1,31 copy.bmp,0,1,Keyboard,-999999,16,3589298,2,3063,3592361,v9Gu*64,u,,,,,,,,RMEProc,1,2,Keyboard,-999999,67,3581548,2,7733,3589281,31,1,27,RMETrialList,,,,,,,
RMEBPD Clinical Cog Load (2.13.15) Laptop version (2),3016,1,"<?xml version=""1.0""?>\n<Clock xmlns:dt=""urn:schemas-microsoft-com:datatypes""><Description dt:dt=""string"">E-Prime Primary Realtime Clock</Description><StartTime><Timestamp dt:dt=""int"">0</Timestamp><DateUtc dt:dt=""string"">2019-06-25T13:25:19Z</DateUtc></StartTime><FrequencyChanges><FrequencyChange><Frequency dt:dt=""r8"">10000000</Frequency><Timestamp dt:dt=""r8"">6267359678485</Timestamp><Current dt:dt=""r8"">0</Current><DateUtc dt:dt=""string"">2019-06-25T13:25:19Z</DateUtc></FrequencyChange></FrequencyChanges></Clock>\n",RMEBPD Clinical Cog Load (2.13.15) Laptop version (2)-3016-1,60.006,1.0.0.496,Keyboard,1,JS,1003219245,Full,3.0.3.60,3.0.3.60,6/25/2019,6/25/2019 13:25,9:25:19,3.0.3.43,3,Keyboard,1,3542,3732025,Keyboard,1,2849,3728465,?,Keyboard,3,1,3,,Keyboard,Keyboard,1,1,Keyboard,-999999,31,3149177,1,7673,3156850,,,,Keyboard,RME,0,1,Keyboard,-999999,17,3137694,4,11452,3149146,BlockList,0,,Keyboard,-999999,25,3732050,{TAB},1935,3733985,,,,28,,,,,,,,,,,,,2,1,27 copy.bmp,1,1,Keyboard,-999999,25,3602298,1,2983,3605281,86Y4n*J,Y,,,,,,,,RMEProc,1,2,Keyboard,-999999,66,3597448,2,4825,3602273,27,1,28,RMETrialList,,,,,,,
RMEBPD Clinical Cog Load (2.13.15) Laptop version (2),3016,1,"<?xml version=""1.0""?>\n<Clock xmlns:dt=""urn:schemas-microsoft-com:datatypes""><Description dt:dt=""string"">E-Prime Primary Realtime Clock</Description><StartTime><Timestamp dt:dt=""int"">0</Timestamp><DateUtc dt:dt=""string"">2019-06-25T13:25:19Z</DateUtc></StartTime><FrequencyChanges><FrequencyChange><Frequency dt:dt=""r8"">10000000</Frequency><Timestamp dt:dt=""r8"">6267359678485</Timestamp><Current dt:dt=""r8"">0</Current><DateUtc dt:dt=""string"">2019-06-25T13:25:19Z</DateUtc></FrequencyChange></FrequencyChanges></Clock>\n",RMEBPD Clinical Cog Load (2.13.15) Laptop version (2)-3016-1,60.006,1.0.0.496,Keyboard,1,JS,1003219245,Full,3.0.3.60,3.0.3.60,6/25/2019,6/25/2019 13:25,9:25:19,3.0.3.43,3,Keyboard,1,3542,3732025,Keyboard,1,2849,3728465,?,Keyboard,3,1,3,,Keyboard,Keyboard,1,1,Keyboard,-999999,31,3149177,1,7673,3156850,,,,Keyboard,RME,0,1,Keyboard,-999999,17,3137694,4,11452,3149146,BlockList,0,,Keyboard,-999999,25,3732050,{TAB},1935,3733985,,,,29,,,,,,,,,,,,,4,1,33 copy.bmp,0,1,Keyboard,-999999,20,3615198,2,3307,3618505,Hj*42w9,9,,,,,,,,RMEProc,1,4,Keyboard,-999999,67,3610382,4,4795,3615177,33,1,29,RMETrialList,,,,,,,
RMEBPD Clinical Cog Load (2.13.15) Laptop version (2),3016,1,"<?xml version=""1.0""?>\n<Clock xmlns:dt=""urn:schemas-microsoft-com:datatypes""><Description dt:dt=""string"">E-Prime Primary Realtime Clock</Description><StartTime><Timestamp dt:dt=""int"">0</Timestamp><DateUtc dt:dt=""string"">2019-06-25T13:25:19Z</DateUtc></StartTime><FrequencyChanges><FrequencyChange><Frequency dt:dt=""r8"">10000000</Frequency><Timestamp dt:dt=""r8"">6267359678485</Timestamp><Current dt:dt=""r8"">0</Current><DateUtc dt:dt=""string"">2019-06-25T13:25:19Z</DateUtc></FrequencyChange></FrequencyChanges></Clock>\n",RMEBPD Clinical Cog Load (2.13.15) Laptop version (2)-3016-1,60.006,1.0.0.496,Keyboard,1,JS,1003219245,Full,3.0.3.60,3.0.3.60,6/25/2019,6/25/2019 13:25,9:25:19,3.0.3.43,3,Keyboard,1,3542,3732025,Keyboard,1,2849,3728465,?,Keyboard,3,1,3,,Keyboard,Keyboard,1,1,Keyboard,-999999,31,3149177,1,7673,3156850,,,,Keyboard,RME,0,1,Keyboard,-999999,17,3137694,4,11452,3149146,BlockList,0,,Keyboard,-999999,25,3732050,{TAB},1935,3733985,,,,30,,,,,,,,,,,,,1,2,10 copy.bmp,1,2,Keyboard,-999999,29,3640399,2,2682,3643081,XgQ74*m,#,,,,,,,,RMEProc,0,1,Keyboard,-999999,67,3623599,2,16770,3640369,10,1,30,RMETrialList,,,,,,,
RMEBPD Clinical Cog Load (2.13.15) Laptop version (2),3016,1,"<?xml version=""1.0""?>\n<Clock xmlns:dt=""urn:schemas-microsoft-com:datatypes""><Description dt:dt=""string"">E-Prime Primary Realtime Clock</Description><StartTime><Timestamp dt:dt=""int"">0</Timestamp><DateUtc dt:dt=""string"">2019-06-25T13:25:19Z</DateUtc></StartTime><FrequencyChanges><FrequencyChange><Frequency dt:dt=""r8"">10000000</Frequency><Timestamp dt:dt=""r8"">6267359678485</Timestamp><Current dt:dt=""r8"">0</Current><DateUtc dt:dt=""string"">2019-06-25T13:25:19Z</DateUtc></FrequencyChange></FrequencyChanges></Clock>\n",RMEBPD Clinical Cog Load (2.13.15) Laptop version (2)-3016-1,60.006,1.0.0.496,Keyboard,1,JS,1003219245,Full,3.0.3.60,3.0.3.60,6/25/2019,6/25/2019 13:25,9:25:19,3.0.3.43,3,Keyboard,1,3542,3732025,Keyboard,1,2849,3728465,?,Keyboard,3,1,3,,Keyboard,Keyboard,1,1,Keyboard,-999999,31,3149177,1,7673,3156850,,,,Keyboard,RME,0,1,Keyboard,-999999,17,3137694,4,11452,3149146,BlockList,0,,Keyboard,-999999,25,3732050,{TAB},1935,3733985,,,,31,,,,,,,,,,,,,3,1,11 copy.bmp,0,1,Keyboard,-999999,19,3653732,2,2085,3655817,pD8#12b,p,,,,,,,,RMEProc,0,3,Keyboard,-999999,267,3648382,1,5331,3653713,11,1,31,RMETrialList,,,,,,,
RMEBPD Clinical Cog Load (2.13.15) Laptop version (2),3016,1,"<?xml version=""1.0""?>\n<Clock xmlns:dt=""urn:schemas-microsoft-com:datatypes""><Description dt:dt=""string"">E-Prime Primary Realtime Clock</Description><StartTime><Timestamp dt:dt=""int"">0</Timestamp><DateUtc dt:dt=""string"">2019-06-25T13:25:19Z</DateUtc></StartTime><FrequencyChanges><FrequencyChange><Frequency dt:dt=""r8"">10000000</Frequency><Timestamp dt:dt=""r8"">6267359678485</Timestamp><Current dt:dt=""r8"">0</Current><DateUtc dt:dt=""string"">2019-06-25T13:25:19Z</DateUtc></FrequencyChange></FrequencyChanges></Clock>\n",RMEBPD Clinical Cog Load (2.13.15) Laptop version (2)-3016-1,60.006,1.0.0.496,Keyboard,1,JS,1003219245,Full,3.0.3.60,3.0.3.60,6/25/2019,6/25/2019 13:25,9:25:19,3.0.3.43,3,Keyboard,1,3542,3732025,Keyboard,1,2849,3728465,?,Keyboard,3,1,3,,Keyboard,Keyboard,1,1,Keyboard,-999999,31,3149177,1,7673,3156850,,,,Keyboard,RME,0,1,Keyboard,-999999,17,3137694,4,11452,3149146,BlockList,0,,Keyboard,-999999,25,3732050,{TAB},1935,3733985,,,,32,,,,,,,,,,,,,4,2,14 copy.bmp,1,2,Keyboard,-999999,36,3672949,2,2124,3675073,Ex7J2b#,V,,,,,,,,RMEProc,1,4,Keyboard,-999999,67,3660916,4,11997,3672913,14,1,32,RMETrialList,,,,,,,
RMEBPD Clinical Cog Load (2.13.15) Laptop version (2),3016,1,"<?xml version=""1.0""?>\n<Clock xmlns:dt=""urn:schemas-microsoft-com:datatypes""><Description dt:dt=""string"">E-Prime Primary Realtime Clock</Description><StartTime><Timestamp dt:dt=""int"">0</Timestamp><DateUtc dt:dt=""string"">2019-06-25T13:25:19Z</DateUtc></StartTime><FrequencyChanges><FrequencyChange><Frequency dt:dt=""r8"">10000000</Frequency><Timestamp dt:dt=""r8"">6267359678485</Timestamp><Current dt:dt=""r8"">0</Current><DateUtc dt:dt=""string"">2019-06-25T13:25:19Z</DateUtc></FrequencyChange></FrequencyChanges></Clock>\n",RMEBPD Clinical Cog Load (2.13.15) Laptop version (2)-3016-1,60.006,1.0.0.496,Keyboard,1,JS,1003219245,Full,3.0.3.60,3.0.3.60,6/25/2019,6/25/2019 13:25,9:25:19,3.0.3.43,3,Keyboard,1,3542,3732025,Keyboard,1,2849,3728465,?,Keyboard,3,1,3,,Keyboard,Keyboard,1,1,Keyboard,-999999,31,3149177,1,7673,3156850,,,,Keyboard,RME,0,1,Keyboard,-999999,17,3137694,4,11452,3149146,BlockList,0,,Keyboard,-999999,25,3732050,{TAB},1935,3733985,,,,33,,,,,,,,,,,,,2,2,06 copy.bmp,1,2,Keyboard,-999999,23,3684233,2,2696,3686929,n63#m1Q,G,,,,,,,,RMEProc,1,2,Keyboard,-999999,267,3680366,2,3843,3684209,6,1,33,RMETrialList,,,,,,,
RMEBPD Clinical Cog Load (2.13.15) Laptop version (2),3016,1,"<?xml version=""1.0""?>\n<Clock xmlns:dt=""urn:schemas-microsoft-com:datatypes""><Description dt:dt=""string"">E-Prime Primary Realtime Clock</Description><StartTime><Timestamp dt:dt=""int"">0</Timestamp><DateUtc dt:dt=""string"">2019-06-25T13:25:19Z</DateUtc></StartTime><FrequencyChanges><FrequencyChange><Frequency dt:dt=""r8"">10000000</Frequency><Timestamp dt:dt=""r8"">6267359678485</Timestamp><Current dt:dt=""r8"">0</Current><DateUtc dt:dt=""string"">2019-06-25T13:25:19Z</DateUtc></FrequencyChange></FrequencyChanges></Clock>\n",RMEBPD Clinical Cog Load (2.13.15) Laptop version (2)-3016-1,60.006,1.0.0.496,Keyboard,1,JS,1003219245,Full,3.0.3.60,3.0.3.60,6/25/2019,6/25/2019 13:25,9:25:19,3.0.3.43,3,Keyboard,1,3542,3732025,Keyboard,1,2849,3728465,?,Keyboard,3,1,3,,Keyboard,Keyboard,1,1,Keyboard,-999999,31,3149177,1,7673,3156850,,,,Keyboard,RME,0,1,Keyboard,-999999,17,3137694,4,11452,3149146,BlockList,0,,Keyboard,-999999,25,3732050,{TAB},1935,3733985,,,,34,,,,,,,,,,,,,1,1,17 copy.bmp,0,1,Keyboard,-999999,29,3701566,2,2347,3703913,38qJ#rQ,q,,,,,,,,RMEProc,0,1,Keyboard,-999999,67,3692016,3,9521,3701537,17,1,34,RMETrialList,,,,,,,
RMEBPD Clinical Cog Load (2.13.15) Laptop version (2),3016,1,"<?xml version=""1.0""?>\n<Clock xmlns:dt=""urn:schemas-microsoft-com:datatypes""><Description dt:dt=""string"">E-Prime Primary Realtime Clock</Description><StartTime><Timestamp dt:dt=""int"">0</Timestamp><DateUtc dt:dt=""string"">2019-06-25T13:25:19Z</DateUtc></StartTime><FrequencyChanges><FrequencyChange><Frequency dt:dt=""r8"">10000000</Frequency><Timestamp dt:dt=""r8"">6267359678485</Timestamp><Current dt:dt=""r8"">0</Current><DateUtc dt:dt=""string"">2019-06-25T13:25:19Z</DateUtc></FrequencyChange></FrequencyChanges></Clock>\n",RMEBPD Clinical Cog Load (2.13.15) Laptop version (2)-3016-1,60.006,1.0.0.496,Keyboard,1,JS,1003219245,Full,3.0.3.60,3.0.3.60,6/25/2019,6/25/2019 13:25,9:25:19,3.0.3.43,3,Keyboard,1,3542,3732025,Keyboard,1,2849,3728465,?,Keyboard,3,1,3,,Keyboard,Keyboard,1,1,Keyboard,-999999,31,3149177,1,7673,3156850,,,,Keyboard,RME,0,1,Keyboard,-999999,17,3137694,4,11452,3149146,BlockList,0,,Keyboard,-999999,25,3732050,{TAB},1935,3733985,,,,35,,,,,,,,,,,,,2,2,30 copy.bmp,0,2,Keyboard,-999999,16,3711649,1,2016,3713665,#KQ47d3,1,,,,,,,,RMEProc,1,2,Keyboard,-999999,66,3708999,2,2634,3711633,30,1,35,RMETrialList,,,,,,,
RMEBPD Clinical Cog Load (2.13.15) Laptop version (2),3016,1,"<?xml version=""1.0""?>\n<Clock xmlns:dt=""urn:schemas-microsoft-com:datatypes""><Description dt:dt=""string"">E-Prime Primary Realtime Clock</Description><StartTime><Timestamp dt:dt=""int"">0</Timestamp><DateUtc dt:dt=""string"">2019-06-25T13:25:19Z</DateUtc></StartTime><FrequencyChanges><FrequencyChange><Frequency dt:dt=""r8"">10000000</Frequency><Timestamp dt:dt=""r8"">6267359678485</Timestamp><Current dt:dt=""r8"">0</Current><DateUtc dt:dt=""string"">2019-06-25T13:25:19Z</DateUtc></FrequencyChange></FrequencyChanges></Clock>\n",RMEBPD Clinical Cog Load (2.13.15) Laptop version (2)-3016-1,60.006,1.0.0.496,Keyboard,1,JS,1003219245,Full,3.0.3.60,3.0.3.60,6/25/2019,6/25/2019 13:25,9:25:19,3.0.3.43,3,Keyboard,1,3542,3732025,Keyboard,1,2849,3728465,?,Keyboard,3,1,3,,Keyboard,Keyboard,1,1,Keyboard,-999999,31,3149177,1,7673,3156850,,,,Keyboard,RME,0,1,Keyboard,-999999,17,3137694,4,11452,3149146,BlockList,0,,Keyboard,-999999,25,3732050,{TAB},1935,3733985,,,,36,,,,,,,,,,,,,4,1,25 copy.bmp,0,1,Keyboard,-999999,39,3723200,2,2393,3725593,G97hv*3,h,,,,,,,,RMEProc,1,4,Keyboard,-999999,66,3718766,4,4395,3723161,25,1,36,RMETrialList,,,,,,,
RMEBPD Clinical Cog Load (2.13.15) Laptop version (2),3016,1,"<?xml version=""1.0""?>\n<Clock xmlns:dt=""urn:schemas-microsoft-com:datatypes""><Description dt:dt=""string"">E-Prime Primary Realtime Clock</Description><StartTime><Timestamp dt:dt=""int"">0</Timestamp><DateUtc dt:dt=""string"">2019-06-25T13:25:19Z</DateUtc></StartTime><FrequencyChanges><FrequencyChange><Frequency dt:dt=""r8"">10000000</Frequency><Timestamp dt:dt=""r8"">6267359678485</Timestamp><Current dt:dt=""r8"">0</Current><DateUtc dt:dt=""string"">2019-06-25T13:25:19Z</DateUtc></FrequencyChange></FrequencyChanges></Clock>\n",RMEBPD Clinical Cog Load (2.13.15) Laptop version (2)-3016-1,60.006,1.0.0.496,Keyboard,1,JS,1003219245,Full,3.0.3.60,3.0.3.60,6/25/2019,6/25/2019 13:25,9:25:19,3.0.3.43,4,,,,,,,,,?,,4,1,4,,,,,,,,,,,,,Keyboard,1608,3735641,,PANAS,,,,,,,,,,BlockList,,,,,,,,,,,,,1,,,,,,,,,,,,,,,PANAS01.bmp,,,,,,,,,,,,1,2,23,Keyboard,2,21063,3756729,PANASProc,,,,,,,,,,,,,PANASQuestions,,,,,,,
RMEBPD Clinical Cog Load (2.13.15) Laptop version (2),3016,1,"<?xml version=""1.0""?>\n<Clock xmlns:dt=""urn:schemas-microsoft-com:datatypes""><Description dt:dt=""string"">E-Prime Primary Realtime Clock</Description><StartTime><Timestamp dt:dt=""int"">0</Timestamp><DateUtc dt:dt=""string"">2019-06-25T13:25:19Z</DateUtc></StartTime><FrequencyChanges><FrequencyChange><Frequency dt:dt=""r8"">10000000</Frequency><Timestamp dt:dt=""r8"">6267359678485</Timestamp><Current dt:dt=""r8"">0</Current><DateUtc dt:dt=""string"">2019-06-25T13:25:19Z</DateUtc></FrequencyChange></FrequencyChanges></Clock>\n",RMEBPD Clinical Cog Load (2.13.15) Laptop version (2)-3016-1,60.006,1.0.0.496,Keyboard,1,JS,1003219245,Full,3.0.3.60,3.0.3.60,6/25/2019,6/25/2019 13:25,9:25:19,3.0.3.43,4,,,,,,,,,?,,4,1,4,,,,,,,,,,,,,Keyboard,1608,3735641,,PANAS,,,,,,,,,,BlockList,,,,,,,,,,,,,2,,,,,,,,,,,,,,,PANAS02.bmp,,,,,,,,,,,,2,2,24,Keyboard,2,2827,3759577,PANASProc,,,,,,,,,,,,,PANASQuestions,,,,,,,
RMEBPD Clinical Cog Load (2.13.15) Laptop version (2),3016,1,"<?xml version=""1.0""?>\n<Clock xmlns:dt=""urn:schemas-microsoft-com:datatypes""><Description dt:dt=""string"">E-Prime Primary Realtime Clock</Description><StartTime><Timestamp dt:dt=""int"">0</Timestamp><DateUtc dt:dt=""string"">2019-06-25T13:25:19Z</DateUtc></StartTime><FrequencyChanges><FrequencyChange><Frequency dt:dt=""r8"">10000000</Frequency><Timestamp dt:dt=""r8"">6267359678485</Timestamp><Current dt:dt=""r8"">0</Current><DateUtc dt:dt=""string"">2019-06-25T13:25:19Z</DateUtc></FrequencyChange></FrequencyChanges></Clock>\n",RMEBPD Clinical Cog Load (2.13.15) Laptop version (2)-3016-1,60.006,1.0.0.496,Keyboard,1,JS,1003219245,Full,3.0.3.60,3.0.3.60,6/25/2019,6/25/2019 13:25,9:25:19,3.0.3.43,4,,,,,,,,,?,,4,1,4,,,,,,,,,,,,,Keyboard,1608,3735641,,PANAS,,,,,,,,,,BlockList,,,,,,,,,,,,,3,,,,,,,,,,,,,,,PANAS03.bmp,,,,,,,,,,,,3,2,25,Keyboard,1,4729,3764329,PANASProc,,,,,,,,,,,,,PANASQuestions,,,,,,,
RMEBPD Clinical Cog Load (2.13.15) Laptop version (2),3016,1,"<?xml version=""1.0""?>\n<Clock xmlns:dt=""urn:schemas-microsoft-com:datatypes""><Description dt:dt=""string"">E-Prime Primary Realtime Clock</Description><StartTime><Timestamp dt:dt=""int"">0</Timestamp><DateUtc dt:dt=""string"">2019-06-25T13:25:19Z</DateUtc></StartTime><FrequencyChanges><FrequencyChange><Frequency dt:dt=""r8"">10000000</Frequency><Timestamp dt:dt=""r8"">6267359678485</Timestamp><Current dt:dt=""r8"">0</Current><DateUtc dt:dt=""string"">2019-06-25T13:25:19Z</DateUtc></FrequencyChange></FrequencyChanges></Clock>\n",RMEBPD Clinical Cog Load (2.13.15) Laptop version (2)-3016-1,60.006,1.0.0.496,Keyboard,1,JS,1003219245,Full,3.0.3.60,3.0.3.60,6/25/2019,6/25/2019 13:25,9:25:19,3.0.3.43,4,,,,,,,,,?,,4,1,4,,,,,,,,,,,,,Keyboard,1608,3735641,,PANAS,,,,,,,,,,BlockList,,,,,,,,,,,,,4,,,,,,,,,,,,,,,PANAS04.bmp,,,,,,,,,,,,4,2,26,Keyboard,1,3027,3767377,PANASProc,,,,,,,,,,,,,PANASQuestions,,,,,,,
RMEBPD Clinical Cog Load (2.13.15) Laptop version (2),3016,1,"<?xml version=""1.0""?>\n<Clock xmlns:dt=""urn:schemas-microsoft-com:datatypes""><Description dt:dt=""string"">E-Prime Primary Realtime Clock</Description><StartTime><Timestamp dt:dt=""int"">0</Timestamp><DateUtc dt:dt=""string"">2019-06-25T13:25:19Z</DateUtc></StartTime><FrequencyChanges><FrequencyChange><Frequency dt:dt=""r8"">10000000</Frequency><Timestamp dt:dt=""r8"">6267359678485</Timestamp><Current dt:dt=""r8"">0</Current><DateUtc dt:dt=""string"">2019-06-25T13:25:19Z</DateUtc></FrequencyChange></FrequencyChanges></Clock>\n",RMEBPD Clinical Cog Load (2.13.15) Laptop version (2)-3016-1,60.006,1.0.0.496,Keyboard,1,JS,1003219245,Full,3.0.3.60,3.0.3.60,6/25/2019,6/25/2019 13:25,9:25:19,3.0.3.43,4,,,,,,,,,?,,4,1,4,,,,,,,,,,,,,Keyboard,1608,3735641,,PANAS,,,,,,,,,,BlockList,,,,,,,,,,,,,5,,,,,,,,,,,,,,,PANAS05.bmp,,,,,,,,,,,,5,2,27,Keyboard,2,2009,3769409,PANASProc,,,,,,,,,,,,,PANASQuestions,,,,,,,
RMEBPD Clinical Cog Load (2.13.15) Laptop version (2),3016,1,"<?xml version=""1.0""?>\n<Clock xmlns:dt=""urn:schemas-microsoft-com:datatypes""><Description dt:dt=""string"">E-Prime Primary Realtime Clock</Description><StartTime><Timestamp dt:dt=""int"">0</Timestamp><DateUtc dt:dt=""string"">2019-06-25T13:25:19Z</DateUtc></StartTime><FrequencyChanges><FrequencyChange><Frequency dt:dt=""r8"">10000000</Frequency><Timestamp dt:dt=""r8"">6267359678485</Timestamp><Current dt:dt=""r8"">0</Current><DateUtc dt:dt=""string"">2019-06-25T13:25:19Z</DateUtc></FrequencyChange></FrequencyChanges></Clock>\n",RMEBPD Clinical Cog Load (2.13.15) Laptop version (2)-3016-1,60.006,1.0.0.496,Keyboard,1,JS,1003219245,Full,3.0.3.60,3.0.3.60,6/25/2019,6/25/2019 13:25,9:25:19,3.0.3.43,4,,,,,,,,,?,,4,1,4,,,,,,,,,,,,,Keyboard,1608,3735641,,PANAS,,,,,,,,,,BlockList,,,,,,,,,,,,,6,,,,,,,,,,,,,,,PANAS06.bmp,,,,,,,,,,,,6,2,28,Keyboard,1,1488,3770921,PANASProc,,,,,,,,,,,,,PANASQuestions,,,,,,,
RMEBPD Clinical Cog Load (2.13.15) Laptop version (2),3016,1,"<?xml version=""1.0""?>\n<Clock xmlns:dt=""urn:schemas-microsoft-com:datatypes""><Description dt:dt=""string"">E-Prime Primary Realtime Clock</Description><StartTime><Timestamp dt:dt=""int"">0</Timestamp><DateUtc dt:dt=""string"">2019-06-25T13:25:19Z</DateUtc></StartTime><FrequencyChanges><FrequencyChange><Frequency dt:dt=""r8"">10000000</Frequency><Timestamp dt:dt=""r8"">6267359678485</Timestamp><Current dt:dt=""r8"">0</Current><DateUtc dt:dt=""string"">2019-06-25T13:25:19Z</DateUtc></FrequencyChange></FrequencyChanges></Clock>\n",RMEBPD Clinical Cog Load (2.13.15) Laptop version (2)-3016-1,60.006,1.0.0.496,Keyboard,1,JS,1003219245,Full,3.0.3.60,3.0.3.60,6/25/2019,6/25/2019 13:25,9:25:19,3.0.3.43,4,,,,,,,,,?,,4,1,4,,,,,,,,,,,,,Keyboard,1608,3735641,,PANAS,,,,,,,,,,BlockList,,,,,,,,,,,,,7,,,,,,,,,,,,,,,PANAS07.bmp,,,,,,,,,,,,7,2,29,Keyboard,1,1219,3772169,PANASProc,,,,,,,,,,,,,PANASQuestions,,,,,,,
RMEBPD Clinical Cog Load (2.13.15) Laptop version (2),3016,1,"<?xml version=""1.0""?>\n<Clock xmlns:dt=""urn:schemas-microsoft-com:datatypes""><Description dt:dt=""string"">E-Prime Primary Realtime Clock</Description><StartTime><Timestamp dt:dt=""int"">0</Timestamp><DateUtc dt:dt=""string"">2019-06-25T13:25:19Z</DateUtc></StartTime><FrequencyChanges><FrequencyChange><Frequency dt:dt=""r8"">10000000</Frequency><Timestamp dt:dt=""r8"">6267359678485</Timestamp><Current dt:dt=""r8"">0</Current><DateUtc dt:dt=""string"">2019-06-25T13:25:19Z</DateUtc></FrequencyChange></FrequencyChanges></Clock>\n",RMEBPD Clinical Cog Load (2.13.15) Laptop version (2)-3016-1,60.006,1.0.0.496,Keyboard,1,JS,1003219245,Full,3.0.3.60,3.0.3.60,6/25/2019,6/25/2019 13:25,9:25:19,3.0.3.43,4,,,,,,,,,?,,4,1,4,,,,,,,,,,,,,Keyboard,1608,3735641,,PANAS,,,,,,,,,,BlockList,,,,,,,,,,,,,8,,,,,,,,,,,,,,,PANAS08.bmp,,,,,,,,,,,,8,2,30,Keyboard,3,3945,3776145,PANASProc,,,,,,,,,,,,,PANASQuestions,,,,,,,
RMEBPD Clinical Cog Load (2.13.15) Laptop version (2),3016,1,"<?xml version=""1.0""?>\n<Clock xmlns:dt=""urn:schemas-microsoft-com:datatypes""><Description dt:dt=""string"">E-Prime Primary Realtime Clock</Description><StartTime><Timestamp dt:dt=""int"">0</Timestamp><DateUtc dt:dt=""string"">2019-06-25T13:25:19Z</DateUtc></StartTime><FrequencyChanges><FrequencyChange><Frequency dt:dt=""r8"">10000000</Frequency><Timestamp dt:dt=""r8"">6267359678485</Timestamp><Current dt:dt=""r8"">0</Current><DateUtc dt:dt=""string"">2019-06-25T13:25:19Z</DateUtc></FrequencyChange></FrequencyChanges></Clock>\n",RMEBPD Clinical Cog Load (2.13.15) Laptop version (2)-3016-1,60.006,1.0.0.496,Keyboard,1,JS,1003219245,Full,3.0.3.60,3.0.3.60,6/25/2019,6/25/2019 13:25,9:25:19,3.0.3.43,4,,,,,,,,,?,,4,1,4,,,,,,,,,,,,,Keyboard,1608,3735641,,PANAS,,,,,,,,,,BlockList,,,,,,,,,,,,,9,,,,,,,,,,,,,,,PANAS09.bmp,,,,,,,,,,,,9,2,31,Keyboard,1,4354,3780521,PANASProc,,,,,,,,,,,,,PANASQuestions,,,,,,,
RMEBPD Clinical Cog Load (2.13.15) Laptop version (2),3016,1,"<?xml version=""1.0""?>\n<Clock xmlns:dt=""urn:schemas-microsoft-com:datatypes""><Description dt:dt=""string"">E-Prime Primary Realtime Clock</Description><StartTime><Timestamp dt:dt=""int"">0</Timestamp><DateUtc dt:dt=""string"">2019-06-25T13:25:19Z</DateUtc></StartTime><FrequencyChanges><FrequencyChange><Frequency dt:dt=""r8"">10000000</Frequency><Timestamp dt:dt=""r8"">6267359678485</Timestamp><Current dt:dt=""r8"">0</Current><DateUtc dt:dt=""string"">2019-06-25T13:25:19Z</DateUtc></FrequencyChange></FrequencyChanges></Clock>\n",RMEBPD Clinical Cog Load (2.13.15) Laptop version (2)-3016-1,60.006,1.0.0.496,Keyboard,1,JS,1003219245,Full,3.0.3.60,3.0.3.60,6/25/2019,6/25/2019 13:25,9:25:19,3.0.3.43,4,,,,,,,,,?,,4,1,4,,,,,,,,,,,,,Keyboard,1608,3735641,,PANAS,,,,,,,,,,BlockList,,,,,,,,,,,,,10,,,,,,,,,,,,,,,PANAS10.bmp,,,,,,,,,,,,10,2,32,Keyboard,2,4275,3784825,PANASProc,,,,,,,,,,,,,PANASQuestions,,,,,,,
RMEBPD Clinical Cog Load (2.13.15) Laptop version (2),3016,1,"<?xml version=""1.0""?>\n<Clock xmlns:dt=""urn:schemas-microsoft-com:datatypes""><Description dt:dt=""string"">E-Prime Primary Realtime Clock</Description><StartTime><Timestamp dt:dt=""int"">0</Timestamp><DateUtc dt:dt=""string"">2019-06-25T13:25:19Z</DateUtc></StartTime><FrequencyChanges><FrequencyChange><Frequency dt:dt=""r8"">10000000</Frequency><Timestamp dt:dt=""r8"">6267359678485</Timestamp><Current dt:dt=""r8"">0</Current><DateUtc dt:dt=""string"">2019-06-25T13:25:19Z</DateUtc></FrequencyChange></FrequencyChanges></Clock>\n",RMEBPD Clinical Cog Load (2.13.15) Laptop version (2)-3016-1,60.006,1.0.0.496,Keyboard,1,JS,1003219245,Full,3.0.3.60,3.0.3.60,6/25/2019,6/25/2019 13:25,9:25:19,3.0.3.43,4,,,,,,,,,?,,4,1,4,,,,,,,,,,,,,Keyboard,1608,3735641,,PANAS,,,,,,,,,,BlockList,,,,,,,,,,,,,11,,,,,,,,,,,,,,,PANAS11.bmp,,,,,,,,,,,,11,2,33,Keyboard,1,1614,3786481,PANASProc,,,,,,,,,,,,,PANASQuestions,,,,,,,
RMEBPD Clinical Cog Load (2.13.15) Laptop version (2),3016,1,"<?xml version=""1.0""?>\n<Clock xmlns:dt=""urn:schemas-microsoft-com:datatypes""><Description dt:dt=""string"">E-Prime Primary Realtime Clock</Description><StartTime><Timestamp dt:dt=""int"">0</Timestamp><DateUtc dt:dt=""string"">2019-06-25T13:25:19Z</DateUtc></StartTime><FrequencyChanges><FrequencyChange><Frequency dt:dt=""r8"">10000000</Frequency><Timestamp dt:dt=""r8"">6267359678485</Timestamp><Current dt:dt=""r8"">0</Current><DateUtc dt:dt=""string"">2019-06-25T13:25:19Z</DateUtc></FrequencyChange></FrequencyChanges></Clock>\n",RMEBPD Clinical Cog Load (2.13.15) Laptop version (2)-3016-1,60.006,1.0.0.496,Keyboard,1,JS,1003219245,Full,3.0.3.60,3.0.3.60,6/25/2019,6/25/2019 13:25,9:25:19,3.0.3.43,4,,,,,,,,,?,,4,1,4,,,,,,,,,,,,,Keyboard,1608,3735641,,PANAS,,,,,,,,,,BlockList,,,,,,,,,,,,,12,,,,,,,,,,,,,,,PANAS12.bmp,,,,,,,,,,,,12,2,34,Keyboard,1,1916,3788433,PANASProc,,,,,,,,,,,,,PANASQuestions,,,,,,,
RMEBPD Clinical Cog Load (2.13.15) Laptop version (2),3016,1,"<?xml version=""1.0""?>\n<Clock xmlns:dt=""urn:schemas-microsoft-com:datatypes""><Description dt:dt=""string"">E-Prime Primary Realtime Clock</Description><StartTime><Timestamp dt:dt=""int"">0</Timestamp><DateUtc dt:dt=""string"">2019-06-25T13:25:19Z</DateUtc></StartTime><FrequencyChanges><FrequencyChange><Frequency dt:dt=""r8"">10000000</Frequency><Timestamp dt:dt=""r8"">6267359678485</Timestamp><Current dt:dt=""r8"">0</Current><DateUtc dt:dt=""string"">2019-06-25T13:25:19Z</DateUtc></FrequencyChange></FrequencyChanges></Clock>\n",RMEBPD Clinical Cog Load (2.13.15) Laptop version (2)-3016-1,60.006,1.0.0.496,Keyboard,1,JS,1003219245,Full,3.0.3.60,3.0.3.60,6/25/2019,6/25/2019 13:25,9:25:19,3.0.3.43,4,,,,,,,,,?,,4,1,4,,,,,,,,,,,,,Keyboard,1608,3735641,,PANAS,,,,,,,,,,BlockList,,,,,,,,,,,,,13,,,,,,,,,,,,,,,PANAS13.bmp,,,,,,,,,,,,13,2,35,Keyboard,2,2358,3790825,PANASProc,,,,,,,,,,,,,PANASQuestions,,,,,,,
